id,run,version,trial,condition,Stress_duration,total_con_stress_dur,total_noc_stress_dur,rt,Target,First_correct,Feedback,Button_pressed,initial_aversiveness
1,1,6,1,con,6.3319893959,74.63,75.06,831.966741,3,TRUE,Positive,[3],60
1,1,6,2,bas,4.6678644801,74.63,75.06,667.8327634,2,TRUE,Positive,[2],60
1,1,6,3,con,5.2170102596,74.63,75.06,716.9777877,3,TRUE,Positive,[3],60
1,1,6,4,con,5.5999436649,74.63,75.06,599.9104381,2,TRUE,Positive,[2],60
1,1,6,5,noc,7.7851985907,74.63,75.06,785.0913578,1,FALSE,Negative,[1],60
1,1,6,6,noc,7.768089632,74.63,75.06,768.011095,3,FALSE,Negative,[3],60
1,1,6,7,con,6.167436114,74.63,75.06,667.3462498,2,TRUE,Positive,[2],60
1,1,6,8,con,6.0663995408,74.63,75.06,566.361405,1,TRUE,Positive,[1],60
1,1,6,9,con,6.1176014384,74.63,75.06,617.5655681,2,TRUE,Positive,[2],60
1,1,6,10,noc,7.6346407337,74.63,75.06,634.5584206,3,FALSE,Negative,[3],60
1,1,6,11,con,6.2644280382,74.63,75.06,764.4042503,3,TRUE,Positive,[3],60
1,1,6,12,con,6.0667907149,74.63,75.06,566.7589982,1,TRUE,Positive,[1],60
1,1,6,13,noc,4.8008606588,74.63,75.06,800.7590892,1,TRUE,Positive,[3],60
1,1,6,14,noc,7.767800027,74.63,75.06,767.6950595,2,FALSE,Negative,[2],60
1,1,6,15,noc,7.6669178838,74.63,75.06,666.8283972,3,FALSE,Negative,[3],60
1,1,6,16,bas,4.7012471883,74.63,75.06,701.1490171,3,TRUE,Positive,[3],60
1,1,6,17,con,6.2997062039,74.63,75.06,799.6673132,1,TRUE,Positive,[1],60
1,1,6,18,con,6.1677551703,74.63,75.06,667.6736125,2,TRUE,Positive,[2],60
1,1,6,19,bas,5.0007449677,74.63,75.06,NA,1,FALSE,Negative,[],60
1,1,6,20,noc,5.0007649795,74.63,75.06,NA,2,TRUE,Positive,[],60
1,1,6,21,noc,4.7331988639,74.63,75.06,733.1697904,3,TRUE,Positive,[3],60
1,1,6,22,con,6.7165335631,74.63,75.06,966.4976932,1,TRUE,Positive,[1],60
1,1,6,23,bas,4.6015687743,74.63,75.06,601.4770218,1,TRUE,Positive,[1],60
1,1,6,24,bas,4.6350417244,74.63,75.06,634.9250521,3,TRUE,Positive,[3],60
1,1,6,25,noc,4.6331156832,74.63,75.06,633.0813235,2,TRUE,Positive,[2],60
1,1,6,26,noc,4.8187134527,74.63,75.06,818.610373,1,TRUE,Positive,[1],60
1,1,6,27,con,7.6184122935,74.63,75.06,868.2971313,3,TRUE,Positive,[3],60
1,1,6,28,noc,7.683451409,74.63,75.06,683.4208248,2,FALSE,Negative,[2],60
1,1,6,29,bas,4.7346261209,74.63,75.06,734.5151119,2,TRUE,Positive,[2],60
1,1,6,30,noc,4.7686171127,74.63,75.06,768.5136553,1,TRUE,Positive,[1],60
1,2,6,1,bas,4.7175586959,76.25,75.77,717.5141415,2,TRUE,Positive,[2],0
1,2,6,2,con,6.2679017852,76.25,75.77,767.8224929,1,TRUE,Positive,[1],0
1,2,6,3,con,8.196245559,76.25,75.77,696.222527,3,FALSE,Negative,[1],0
1,2,6,4,con,5.2172779641,76.25,75.77,717.2481352,2,TRUE,Positive,[2],0
1,2,6,5,noc,7.7330100737,76.25,75.77,732.9791118,2,FALSE,Negative,[2],0
1,2,6,6,noc,8.0016100062,76.25,75.77,1001.5099472,1,FALSE,Negative,[1],0
1,2,6,7,con,5.7168847136,76.25,75.77,716.8499762,3,TRUE,Positive,[3],0
1,2,6,8,con,5.6670587217,76.25,75.77,667.0288928,2,TRUE,Positive,[2],0
1,2,6,9,bas,4.768084723,76.25,75.77,768.0050535,3,TRUE,Positive,[3],0
1,2,6,10,con,6.183256011,76.25,75.77,683.2250496,2,TRUE,Positive,[2],0
1,2,6,11,noc,7.6854933687,76.25,75.77,685.40728,3,FALSE,Negative,[3],0
1,2,6,12,noc,4.9185051406,76.25,75.77,918.4341556,1,TRUE,Positive,[1],0
1,2,6,13,bas,4.7684068,76.25,75.77,768.3271305,3,TRUE,Positive,[3],0
1,2,6,14,noc,4.901243262,76.25,75.77,901.1696335,1,TRUE,Positive,[1],0
1,2,6,15,noc,8.0803190712,76.25,75.77,NA,2,FALSE,Negative,[],0
1,2,6,16,bas,4.6843066309,76.25,75.77,684.220165,2,TRUE,Positive,[2],0
1,2,6,17,bas,4.8843185622,76.25,75.77,884.2811817,1,TRUE,Positive,[1],0
1,2,6,18,noc,4.7344735786,76.25,75.77,734.4029709,3,TRUE,Positive,[3],0
1,2,6,19,con,6.2805685014,76.25,75.77,780.5462242,1,TRUE,Positive,[1],0
1,2,6,20,noc,4.6676088576,76.25,75.77,667.525412,2,TRUE,Positive,[2],0
1,2,6,21,con,6.2514781361,76.25,75.77,751.3637291,3,TRUE,Positive,[3],0
1,2,6,22,bas,4.8671299336,76.25,75.77,867.0631018,1,TRUE,Positive,[1],0
1,2,6,23,noc,4.8009146526,76.25,75.77,800.8493311,3,TRUE,Positive,[3],0
1,2,6,24,con,6.2839489859,76.25,75.77,783.8742249,2,TRUE,Positive,[2],0
1,2,6,25,con,6.1678371057,76.25,75.77,667.7638548,1,TRUE,Positive,[1],0
1,2,6,26,noc,4.8009671364,76.25,75.77,800.8829355,3,TRUE,Positive,[3],0
1,2,6,27,con,6.5336434282,76.25,75.77,783.6068026,3,TRUE,Positive,[3],0
1,2,6,28,con,7.4835565281,76.25,75.77,733.5168822,1,TRUE,Positive,[1],0
1,2,6,29,noc,7.7343867342,76.25,75.77,734.3142387,1,FALSE,Negative,[1],0
1,2,6,30,noc,7.7086119098,76.25,75.77,708.5288418,2,FALSE,Negative,[2],0
1,3,6,1,noc,7.7520779236,74.5,74.75,751.9842833,3,FALSE,Negative,[3],0
1,3,6,2,con,6.2177446545,74.5,74.75,717.671026,3,TRUE,Positive,[3],0
1,3,6,3,con,5.1347338068,74.5,74.75,634.622043,1,TRUE,Positive,[1],0
1,3,6,4,noc,7.6845286484,74.5,74.75,684.4501114,2,FALSE,Negative,[2],0
1,3,6,5,bas,4.7503795633,74.5,74.75,750.3191507,3,TRUE,Positive,[3],0
1,3,6,6,bas,4.6835820526,74.5,74.75,683.4827489,1,TRUE,Positive,[1],0
1,3,6,7,con,5.700687991,74.5,74.75,700.608321,1,TRUE,Positive,[1],0
1,3,6,8,con,6.2500776872,74.5,74.75,750.0308673,3,TRUE,Positive,[3],0
1,3,6,9,con,6.2138472614,74.5,74.75,713.8257395,2,TRUE,Positive,[2],0
1,3,6,10,noc,7.6502499399,74.5,74.75,650.216335,2,FALSE,Negative,[2],0
1,3,6,11,noc,4.7513318234,74.5,74.75,751.2974632,1,TRUE,Positive,[1],0
1,3,6,12,con,6.1343905856,74.5,74.75,634.3135592,1,TRUE,Positive,[1],0
1,3,6,13,bas,4.7678155075,74.5,74.75,767.7328172,3,TRUE,Positive,[3],0
1,3,6,14,noc,4.7515904666,74.5,74.75,751.4964486,2,TRUE,Positive,[2],0
1,3,6,15,noc,7.7691517677,74.5,74.75,769.0467997,3,FALSE,Negative,[3],0
1,3,6,16,bas,4.6836145245,74.5,74.75,683.5669493,2,TRUE,Positive,[2],0
1,3,6,17,con,6.4180620494,74.5,74.75,917.977849,3,TRUE,Positive,[3],0
1,3,6,18,bas,4.7342239968,74.5,74.75,734.1311118,2,TRUE,Positive,[2],0
1,3,6,19,noc,7.7832978466,74.5,74.75,783.2631092,1,FALSE,Negative,[1],0
1,3,6,20,noc,4.6503688782,74.5,74.75,650.2903411,1,TRUE,Positive,[1],0
1,3,6,21,noc,4.7498294273,74.5,74.75,749.8007314,3,TRUE,Positive,[3],0
1,3,6,22,con,6.16676402,74.5,74.75,666.7232411,1,TRUE,Positive,[1],0
1,3,6,23,con,6.2512444132,74.5,74.75,751.152283,3,TRUE,Positive,[3],0
1,3,6,24,con,6.2300892943,74.5,74.75,730.0655069,2,TRUE,Positive,[2],0
1,3,6,25,noc,4.6507864827,74.5,74.75,650.7003945,2,TRUE,Positive,[2],0
1,3,6,26,con,6.3831958245,74.5,74.75,633.1591993,2,TRUE,Positive,[2],0
1,3,6,27,noc,7.8181584082,74.5,74.75,818.0779833,1,FALSE,Negative,[1],0
1,3,6,28,con,7.397068535,74.5,74.75,646.9979272,2,TRUE,Positive,[2],0
1,3,6,29,noc,4.7345120911,74.5,74.75,734.4309115,3,TRUE,Positive,[3],0
1,3,6,30,bas,4.7186514158,74.5,74.75,718.5668377,1,TRUE,Positive,[1],0
1,4,6,1,bas,4.6839430202,74.41,74.76,683.90866,1,TRUE,Positive,[1],0
1,4,6,2,noc,7.8006322221,74.41,74.76,800.5627468,3,FALSE,Negative,[3],0
1,4,6,3,con,6.0170866819,74.41,74.76,517.0545876,2,TRUE,Positive,[2],0
1,4,6,4,noc,7.6513275565,74.41,74.76,651.2490194,3,FALSE,Negative,[3],0
1,4,6,5,con,5.2021056195,74.41,74.76,702.0323686,1,TRUE,Positive,[1],0
1,4,6,6,con,5.7513571209,74.41,74.76,751.2695221,1,TRUE,Positive,[1],0
1,4,6,7,noc,4.6014743787,74.41,74.76,601.3818714,2,TRUE,Positive,[2],0
1,4,6,8,noc,7.7672736789,74.41,74.76,767.2053366,3,FALSE,Negative,[1],0
1,4,6,9,noc,7.7166268257,74.41,74.76,716.5890676,2,FALSE,Negative,[2],0
1,4,6,10,con,6.2499632803,74.41,74.76,749.9232567,3,TRUE,Positive,[3],0
1,4,6,11,con,6.2841396644,74.41,74.76,784.0633933,3,TRUE,Positive,[3],0
1,4,6,12,noc,4.8022373198,74.41,74.76,802.1368831,1,TRUE,Positive,[1],0
1,4,6,13,con,6.1841648491,74.41,74.76,684.0912206,2,TRUE,Positive,[2],0
1,4,6,14,noc,4.7340801386,74.41,74.76,733.9982037,2,TRUE,Positive,[2],0
1,4,6,15,con,6.2334799734,74.41,74.76,733.4467461,2,TRUE,Positive,[2],0
1,4,6,16,bas,4.81793488,74.41,74.76,817.849169,3,TRUE,Positive,[3],0
1,4,6,17,noc,4.7009228459,74.41,74.76,700.8484625,1,TRUE,Positive,[1],0
1,4,6,18,noc,7.7839963725,74.41,74.76,783.9238769,2,FALSE,Negative,[2],0
1,4,6,19,bas,4.7850815402,74.41,74.76,784.9822366,3,TRUE,Positive,[3],0
1,4,6,20,bas,4.7515806495,74.41,74.76,751.4673751,2,TRUE,Positive,[2],0
1,4,6,21,con,6.1790399393,74.41,74.76,678.9938742,1,TRUE,Positive,[1],0
1,4,6,22,bas,4.8186103725,74.41,74.76,818.4944554,1,TRUE,Positive,[1],0
1,4,6,23,noc,4.6676813532,74.41,74.76,667.6107454,1,TRUE,Positive,[1],0
1,4,6,24,noc,4.7006102093,74.41,74.76,700.5433771,1,TRUE,Positive,[1],0
1,4,6,25,noc,7.8346266123,74.41,74.76,834.5560045,3,FALSE,Negative,[3],0
1,4,6,26,bas,4.6682382855,74.41,74.76,668.125011,2,TRUE,Positive,[2],0
1,4,6,27,con,6.1673368104,74.41,74.76,667.2522323,1,TRUE,Positive,[1],0
1,4,6,28,con,6.2013598965,74.41,74.76,701.2806046,2,TRUE,Positive,[2],0
1,4,6,29,con,6.4845046345,74.41,74.76,734.4208113,3,TRUE,Positive,[3],0
1,4,6,30,con,7.4509527697,74.41,74.76,700.8674364,3,TRUE,Positive,[3],0
2,1,5,1,con,6.4841281858,76.02,76.29,984.0281268,3,TRUE,Positive,[3],65
2,1,5,2,bas,4.8999609959,76.02,76.29,899.9285237,2,TRUE,Positive,[2],65
2,1,5,3,con,5.2496880235,76.02,76.29,749.650643,3,TRUE,Positive,[3],65
2,1,5,4,con,5.8630267589,76.02,76.29,863.004104,2,TRUE,Positive,[2],65
2,1,5,5,noc,4.7502024779,76.02,76.29,750.1662301,1,TRUE,Positive,[1],65
2,1,5,6,noc,5.0009311151,76.02,76.29,NA,3,TRUE,Positive,[],65
2,1,5,7,con,6.4188564804,76.02,76.29,918.7428285,2,TRUE,Positive,[2],65
2,1,5,8,con,6.4018959107,76.02,76.29,901.7864121,1,TRUE,Positive,[1],65
2,1,5,9,con,6.3299379973,76.02,76.29,829.91572,2,TRUE,Positive,[2],65
2,1,5,10,noc,7.966451911,76.02,76.29,966.4201941,3,FALSE,Negative,[3],65
2,1,5,11,con,6.3346936326,76.02,76.29,834.604901,3,TRUE,Positive,[3],65
2,1,5,12,con,6.1837245894,76.02,76.29,683.6705953,1,TRUE,Positive,[1],65
2,1,5,13,noc,7.94760117,76.02,76.29,947.5811583,1,FALSE,Negative,[1],65
2,1,5,14,noc,4.9980592325,76.02,76.29,997.9863595,2,TRUE,Positive,[2],65
2,1,5,15,noc,5.0012460179,76.02,76.29,NA,3,TRUE,Positive,[],65
2,1,5,16,bas,5.0167861271,76.02,76.29,1016.7472363,3,TRUE,Positive,[3],65
2,1,5,17,con,6.1856910321,76.02,76.29,685.5811561,1,TRUE,Positive,[1],65
2,1,5,18,con,6.2851904726,76.02,76.29,785.0805966,2,TRUE,Positive,[2],65
2,1,5,19,bas,4.769403992,76.02,76.29,769.2918503,1,TRUE,Positive,[1],65
2,1,5,20,noc,7.8521127745,76.02,76.29,852.0096948,2,FALSE,Negative,[2],65
2,1,5,21,noc,4.8328440511,76.02,76.29,832.8130895,3,TRUE,Positive,[3],65
2,1,5,22,con,6.5340191214,76.02,76.29,783.9130212,1,TRUE,Positive,[1],65
2,1,5,23,bas,4.6681601263,76.02,76.29,668.0506277,1,TRUE,Positive,[1],65
2,1,5,24,bas,4.984398345,76.02,76.29,984.2918671,3,TRUE,Positive,[3],65
2,1,5,25,noc,7.8853984445,76.02,76.29,885.2949871,2,FALSE,Negative,[3],65
2,1,5,26,noc,7.6846978047,76.02,76.29,684.6642001,1,FALSE,Negative,[1],65
2,1,5,27,con,7.7512699,76.02,76.29,1001.2332746,3,TRUE,Positive,[3],65
2,1,5,28,noc,7.7186959705,76.02,76.29,718.5993097,2,FALSE,Negative,[2],65
2,1,5,29,bas,4.8517227331,76.02,76.29,851.6204087,2,TRUE,Positive,[2],65
2,1,5,30,noc,4.6507222939,76.02,76.29,650.6879339,1,TRUE,Positive,[1],65
2,2,5,1,bas,5.0013502303,80.14,76.41,NA,2,FALSE,Negative,[],0
2,2,5,2,con,6.1470656088,80.14,76.41,647.0437092,1,TRUE,Positive,[1],0
2,2,5,3,con,5.2470642119,80.14,76.41,747.0423123,3,TRUE,Positive,[3],0
2,2,5,4,con,8.7697268238,80.14,76.41,769.6109063,2,FALSE,Negative,[3],0
2,2,5,5,noc,4.683276589,80.14,76.41,683.2392085,2,TRUE,Positive,[2],0
2,2,5,6,noc,7.8344597211,80.14,76.41,834.3755205,1,FALSE,Negative,[1],0
2,2,5,7,con,5.7354556669,80.14,76.41,735.33031,3,TRUE,Positive,[3],0
2,2,5,8,con,5.850976255,80.14,76.41,850.9007387,2,TRUE,Positive,[2],0
2,2,5,9,bas,5.0001064779,80.14,76.41,NA,3,FALSE,Negative,[],0
2,2,5,10,con,5.8669856978,80.14,76.41,866.9045179,2,TRUE,Positive,[2],0
2,2,5,11,noc,8.0174574663,80.14,76.41,1017.398186,3,FALSE,Negative,[3],0
2,2,5,12,noc,7.6013509098,80.14,76.41,601.2353702,1,FALSE,Negative,[1],0
2,2,5,13,bas,5.0006996579,80.14,76.41,NA,3,FALSE,Negative,[],0
2,2,5,14,noc,4.7844883604,80.14,76.41,784.4188854,1,TRUE,Positive,[1],0
2,2,5,15,noc,8.0008080238,80.14,76.41,NA,2,FALSE,Negative,[],0
2,2,5,16,bas,4.7669432953,80.14,76.41,766.8949647,2,TRUE,Positive,[2],0
2,2,5,17,bas,4.7836153929,80.14,76.41,783.5598884,1,TRUE,Positive,[1],0
2,2,5,18,noc,5.0002782773,80.14,76.41,NA,3,TRUE,Positive,[],0
2,2,5,19,con,6.2141383768,80.14,76.41,714.1157219,1,TRUE,Positive,[1],0
2,2,5,20,noc,7.7516418174,80.14,76.41,751.5440239,2,FALSE,Negative,[2],0
2,2,5,21,con,9.5006148908,80.14,76.41,NA,3,FALSE,Negative,[],0
2,2,5,22,bas,4.6011870396,80.14,76.41,601.1039717,1,TRUE,Positive,[1],0
2,2,5,23,noc,5.0171406758,80.14,76.41,NA,3,TRUE,Positive,[],0
2,2,5,24,con,5.8676426888,80.14,76.41,867.6041756,2,TRUE,Positive,[2],0
2,2,5,25,con,5.6342174648,80.14,76.41,634.1487451,1,TRUE,Positive,[1],0
2,2,5,26,noc,5.0003307611,80.14,76.41,NA,3,TRUE,Positive,[],0
2,2,5,27,con,9.2509763306,80.14,76.41,NA,3,FALSE,Negative,[],0
2,2,5,28,con,6.0517913017,80.14,76.41,801.6806706,1,TRUE,Positive,[1],0
2,2,5,29,noc,7.7016032476,80.14,76.41,701.4831768,1,FALSE,Negative,[1],0
2,2,5,30,noc,5.0139032947,80.14,76.41,NA,2,TRUE,Positive,[],0
2,3,5,1,noc,7.930538276,75.05,75.34,930.5182642,3,FALSE,Negative,[3],0
2,3,5,2,con,6.3306825876,75.05,75.34,830.6610654,3,TRUE,Positive,[3],0
2,3,5,3,con,5.1469172193,75.05,75.34,646.8945644,1,TRUE,Positive,[1],0
2,3,5,4,noc,7.8003146762,75.05,75.34,800.2765405,2,FALSE,Negative,[2],0
2,3,5,5,bas,5.0170345756,75.05,75.34,NA,3,FALSE,Negative,[],0
2,3,5,6,bas,4.7178264011,75.05,75.34,717.7369143,1,TRUE,Positive,[1],0
2,3,5,7,con,5.6670590995,75.05,75.34,667.0277603,1,TRUE,Positive,[1],0
2,3,5,8,con,6.1668580372,75.05,75.34,666.8244326,3,TRUE,Positive,[3],0
2,3,5,9,con,6.1677000434,75.05,75.34,667.6181082,2,TRUE,Positive,[2],0
2,3,5,10,noc,7.767460204,75.05,75.34,767.3824222,2,FALSE,Negative,[2],0
2,3,5,11,noc,4.7180389792,75.05,75.34,717.9627079,1,TRUE,Positive,[1],0
2,3,5,12,con,6.0999132695,75.05,75.34,599.8815529,1,TRUE,Positive,[1],0
2,3,5,13,bas,4.5338956523,75.05,75.34,533.8186258,3,FALSE,Negative,[1],0
2,3,5,14,noc,4.7519087673,75.05,75.34,751.800779,2,TRUE,Positive,[2],0
2,3,5,15,noc,4.7350588292,75.05,75.34,734.9731182,3,TRUE,Positive,[3],0
2,3,5,16,bas,4.7013834952,75.05,75.34,701.2894775,2,TRUE,Positive,[2],0
2,3,5,17,con,6.3852861139,75.05,75.34,885.1834119,3,TRUE,Positive,[3],0
2,3,5,18,bas,4.6847933328,75.05,75.34,684.6959169,2,TRUE,Positive,[2],0
2,3,5,19,noc,4.7340019792,75.05,75.34,733.9362802,1,TRUE,Positive,[1],0
2,3,5,20,noc,7.6674351702,75.05,75.34,667.3626746,1,FALSE,Negative,[1],0
2,3,5,21,noc,7.8687104885,75.05,75.34,868.601745,3,FALSE,Negative,[3],0
2,3,5,22,con,6.3672147007,75.05,75.34,867.1070898,1,TRUE,Positive,[1],0
2,3,5,23,con,6.3853691821,75.05,75.34,885.2547749,3,TRUE,Positive,[3],0
2,3,5,24,con,6.3670126947,75.05,75.34,866.9726711,2,TRUE,Positive,[2],0
2,3,5,25,noc,7.7012732415,75.05,75.34,701.191684,2,FALSE,Negative,[2],0
2,3,5,26,con,6.5849148007,75.05,75.34,834.8268245,2,TRUE,Positive,[2],0
2,3,5,27,noc,4.7501900177,75.05,75.34,750.1515045,1,TRUE,Positive,[1],0
2,3,5,28,con,7.3832989042,75.05,75.34,633.2607686,2,TRUE,Positive,[2],0
2,3,5,29,noc,4.917261766,75.05,75.34,917.2005979,3,TRUE,Positive,[3],0
2,3,5,30,bas,4.700161265,75.05,75.34,700.1242619,1,TRUE,Positive,[1],0
2,4,5,1,bas,4.9850466521,76.92,75.3,984.9658497,1,TRUE,Positive,[1],0
2,4,5,2,noc,4.9645345539,76.92,75.3,964.5149196,3,TRUE,Positive,[3],0
2,4,5,3,con,6.2350990414,76.92,75.3,734.9993601,2,TRUE,Positive,[2],0
2,4,5,4,noc,7.7173619759,76.92,75.3,717.2838168,3,FALSE,Negative,[3],0
2,4,5,5,con,5.2642407578,76.92,75.3,764.2188582,1,TRUE,Positive,[1],0
2,4,5,6,con,5.6835763885,76.92,75.3,683.4865243,1,TRUE,Positive,[1],0
2,4,5,7,noc,4.6830651436,76.92,75.3,683.0281408,2,TRUE,Positive,[2],0
2,4,5,8,noc,7.8006820625,76.92,75.3,800.6122101,3,FALSE,Negative,[3],0
2,4,5,9,noc,4.8668006829,76.92,75.3,866.7655678,2,TRUE,Positive,[2],0
2,4,5,10,con,6.3684407067,76.92,75.3,868.3308305,3,TRUE,Positive,[3],0
2,4,5,11,con,9.5010460888,76.92,75.3,NA,3,FALSE,Negative,[],0
2,4,5,12,noc,7.6834842588,76.92,75.3,683.4472558,1,FALSE,Negative,[1],0
2,4,5,13,con,5.71817,76.92,75.3,718.084289,2,TRUE,Positive,[2],0
2,4,5,14,noc,4.7002073298,76.92,75.3,700.1699493,2,TRUE,Positive,[2],0
2,4,5,15,con,5.6835684595,76.92,75.3,683.4993621,2,TRUE,Positive,[2],0
2,4,5,16,bas,4.8996880045,76.92,75.3,899.6483586,3,TRUE,Positive,[3],0
2,4,5,17,noc,7.7844313458,76.92,75.3,784.353564,1,FALSE,Negative,[1],0
2,4,5,18,noc,7.917574781,76.92,75.3,917.5158783,2,FALSE,Negative,[2],0
2,4,5,19,bas,4.7517358351,76.92,75.3,751.6206729,3,TRUE,Positive,[3],0
2,4,5,20,bas,4.7675398735,76.92,75.3,767.4658676,2,TRUE,Positive,[2],0
2,4,5,21,con,5.7175798404,76.92,75.3,717.5039467,1,TRUE,Positive,[1],0
2,4,5,22,bas,4.7339596902,76.92,75.3,733.8671829,1,TRUE,Positive,[1],0
2,4,5,23,noc,4.7336674423,76.92,75.3,733.6255307,1,TRUE,Positive,[1],0
2,4,5,24,noc,7.6999713415,76.92,75.3,699.9343387,1,FALSE,Negative,[1],0
2,4,5,25,noc,4.7506453807,76.92,75.3,750.5932746,3,TRUE,Positive,[3],0
2,4,5,26,bas,4.7338985221,76.92,75.3,733.8203627,2,TRUE,Positive,[2],0
2,4,5,27,con,6.2636317194,76.92,75.3,763.6098198,1,TRUE,Positive,[1],0
2,4,5,28,con,6.2001912824,76.92,75.3,700.1576778,2,TRUE,Positive,[2],0
2,4,5,29,con,6.5353040304,76.92,75.3,785.1775407,3,TRUE,Positive,[3],0
2,4,5,30,con,7.7511966492,76.92,75.3,1001.1067847,3,TRUE,Positive,[3],0
3,1,5,1,con,9.5013708095,82.28,77.28,NA,3,FALSE,Negative,[],85
3,1,5,2,bas,4.9664133724,82.28,77.28,966.3284166,2,TRUE,Positive,[2],85
3,1,5,3,con,4.6504173219,82.28,77.28,650.3402953,3,TRUE,Positive,[3],85
3,1,5,4,con,5.4334495655,82.28,77.28,933.4133177,2,TRUE,Positive,[2],85
3,1,5,5,noc,7.7334505094,82.28,77.28,733.3912292,1,FALSE,Negative,[1],85
3,1,5,6,noc,8.0168854437,82.28,77.28,NA,3,FALSE,Negative,[],85
3,1,5,7,con,5.7340452003,82.28,77.28,733.9670409,2,TRUE,Positive,[2],85
3,1,5,8,con,6.2666310481,82.28,77.28,766.5981986,1,TRUE,Positive,[1],85
3,1,5,9,con,6.266853066,82.28,77.28,766.8111545,2,TRUE,Positive,[2],85
3,1,5,10,noc,5.0165614788,82.28,77.28,NA,3,TRUE,Positive,[],85
3,1,5,11,con,6.3496880233,82.28,77.28,849.6570616,3,TRUE,Positive,[3],85
3,1,5,12,con,6.3671375737,82.28,77.28,867.0643229,1,TRUE,Positive,[1],85
3,1,5,13,noc,4.9169739865,82.28,77.28,916.9377387,1,TRUE,Positive,[1],85
3,1,5,14,noc,5.0162692307,82.28,77.28,NA,2,TRUE,Positive,[],85
3,1,5,15,noc,8.0470319264,82.28,77.28,NA,3,FALSE,Negative,[],85
3,1,5,16,bas,5.0005829858,82.28,77.28,NA,3,FALSE,Negative,[],85
3,1,5,17,con,6.2464961383,82.28,77.28,746.4734834,1,TRUE,Positive,[1],85
3,1,5,18,con,6.450392024,82.28,77.28,950.3161301,2,TRUE,Positive,[2],85
3,1,5,19,bas,5.0002450504,82.28,77.28,NA,1,FALSE,Negative,[],85
3,1,5,20,noc,5.0166184936,82.28,77.28,NA,2,TRUE,Positive,[],85
3,1,5,21,noc,8.0797040516,82.28,77.28,NA,3,FALSE,Negative,[],85
3,1,5,22,con,9.7503714458,82.28,77.28,NA,1,FALSE,Negative,[],85
3,1,5,23,bas,4.8995032916,82.28,77.28,899.4644007,1,TRUE,Positive,[1],85
3,1,5,24,bas,5.0002492038,82.28,77.28,NA,3,FALSE,Negative,[],85
3,1,5,25,noc,7.8167208181,82.28,77.28,816.687591,2,FALSE,Negative,[2],85
3,1,5,26,noc,4.9001519766,82.28,77.28,900.1157287,1,TRUE,Positive,[1],85
3,1,5,27,con,9.2663773134,82.28,77.28,NA,3,FALSE,Negative,[],85
3,1,5,28,noc,4.8997853449,82.28,77.28,899.7487195,2,TRUE,Positive,[2],85
3,1,5,29,bas,4.6676946952,82.28,77.28,667.61276,2,TRUE,Positive,[2],85
3,1,5,30,noc,7.8178762175,82.28,77.28,817.7840876,1,FALSE,Negative,[1],85
3,2,5,1,bas,5.0016371933,80.65,76.22,NA,2,FALSE,Negative,[],0
3,2,5,2,con,9.5004982188,80.65,76.22,NA,1,FALSE,Negative,[],0
3,2,5,3,con,8.0644818544,80.65,76.22,NA,3,FALSE,Negative,[],0
3,2,5,4,con,4.6686156164,80.65,76.22,668.5786134,2,TRUE,Positive,[2],0
3,2,5,5,noc,7.7496925543,80.65,76.22,749.6570616,2,FALSE,Negative,[2],0
3,2,5,6,noc,5.0474461333,80.65,76.22,1047.4257439,1,TRUE,Positive,[1],0
3,2,5,7,con,5.300986054,80.65,76.22,800.909405,3,TRUE,Positive,[3],0
3,2,5,8,con,5.8662058914,80.65,76.22,866.1666229,2,TRUE,Positive,[2],0
3,2,5,9,bas,4.984515006,80.65,76.22,984.4191003,3,TRUE,Positive,[3],0
3,2,5,10,con,6.2500926018,80.65,76.22,750.0623953,2,TRUE,Positive,[2],0
3,2,5,11,noc,4.8679163355,80.65,76.22,867.8287366,3,TRUE,Positive,[3],0
3,2,5,12,noc,7.8828564794,80.65,76.22,882.8213643,1,FALSE,Negative,[1],0
3,2,5,13,bas,4.8998653922,80.65,76.22,899.8265013,3,TRUE,Positive,[3],0
3,2,5,14,noc,4.7496283654,80.65,76.22,749.5943831,1,TRUE,Positive,[1],0
3,2,5,15,noc,7.9470619441,80.65,76.22,947.040422,2,FALSE,Negative,[2],0
3,2,5,16,bas,4.8662953782,80.65,76.22,866.2512012,2,TRUE,Positive,[2],0
3,2,5,17,bas,5.0164848297,80.65,76.22,1016.4440509,1,TRUE,Positive,[1],0
3,2,5,18,noc,4.8179944005,80.65,76.22,817.9000051,3,TRUE,Positive,[3],0
3,2,5,19,con,6.2835904978,80.65,76.22,783.5508517,1,TRUE,Positive,[1],0
3,2,5,20,noc,7.7830329987,80.65,76.22,782.9963733,2,FALSE,Negative,[2],0
3,2,5,21,con,6.2846333778,80.65,76.22,784.5442686,3,TRUE,Positive,[3],0
3,2,5,22,bas,5.0015382669,80.65,76.22,1001.4370751,1,TRUE,Positive,[1],0
3,2,5,23,noc,5.0008159536,80.65,76.22,NA,3,TRUE,Positive,[],0
3,2,5,24,con,6.4329945798,80.65,76.22,932.9571993,2,TRUE,Positive,[2],0
3,2,5,25,con,9.5170106119,80.65,76.22,NA,1,FALSE,Negative,[],0
3,2,5,26,noc,7.7995718226,80.65,76.22,799.538973,3,FALSE,Negative,[3],0
3,2,5,27,con,5.7328984853,80.65,76.22,732.8607272,3,TRUE,Positive,[3],0
3,2,5,28,con,6.7501169558,80.65,76.22,750.0784425,1,TRUE,Positive,[1],0
3,2,5,29,noc,7.8178048546,80.65,76.22,817.7104592,1,FALSE,Negative,[1],0
3,2,5,30,noc,4.7513682609,80.65,76.22,751.2655587,2,TRUE,Positive,[2],0
3,3,5,1,noc,7.9672451844,79.09,76.64,967.2081814,3,FALSE,Negative,[3],0
3,3,5,2,con,6.3337491764,79.09,76.64,833.7201026,3,TRUE,Positive,[3],0
3,3,5,3,con,5.4163220921,79.09,76.64,916.2930183,1,TRUE,Positive,[1],0
3,3,5,4,noc,7.8662983989,79.09,76.64,866.264039,2,FALSE,Negative,[2],0
3,3,5,5,bas,4.9180432973,79.09,76.64,917.9413503,3,TRUE,Positive,[3],0
3,3,5,6,bas,4.9668906354,79.09,76.64,966.8324878,1,TRUE,Positive,[1],0
3,3,5,7,con,5.7509162958,79.09,76.64,750.8283193,1,TRUE,Positive,[1],0
3,3,5,8,con,6.4169749305,79.09,76.64,916.9379275,3,TRUE,Positive,[3],0
3,3,5,9,con,6.2501802008,79.09,76.64,750.146596,2,TRUE,Positive,[2],0
3,3,5,10,noc,4.7997387136,79.09,76.64,799.7013331,2,TRUE,Positive,[2],0
3,3,5,11,noc,4.8796678038,79.09,76.64,879.6470368,1,TRUE,Positive,[1],0
3,3,5,12,con,6.3332579429,79.09,76.64,833.219052,1,TRUE,Positive,[1],0
3,3,5,13,bas,4.8830890696,79.09,76.64,883.049046,3,TRUE,Positive,[3],0
3,3,5,14,noc,7.9130331686,79.09,76.64,913.0124017,2,FALSE,Negative,[2],0
3,3,5,15,noc,8.0000011328,79.09,76.64,999.9652625,3,FALSE,Negative,[3],0
3,3,5,16,bas,4.984051336,79.09,76.64,983.9799731,2,TRUE,Positive,[2],0
3,3,5,17,con,6.4513869512,79.09,76.64,951.2884024,3,TRUE,Positive,[3],0
3,3,5,18,bas,4.8165841337,79.09,76.64,816.5448652,2,TRUE,Positive,[2],0
3,3,5,19,noc,7.7834056716,79.09,76.64,783.3660256,1,FALSE,Negative,[1],0
3,3,5,20,noc,4.7674630489,79.09,76.64,767.2701048,1,TRUE,Positive,[1],0
3,3,5,21,noc,4.8164134668,79.09,76.64,816.38175,3,TRUE,Positive,[3],0
3,3,5,22,con,6.3165367472,79.09,76.64,816.4978563,1,TRUE,Positive,[1],0
3,3,5,23,con,6.2175650903,79.09,76.64,717.4910844,3,TRUE,Positive,[3],0
3,3,5,24,con,6.330503486,79.09,76.64,830.4804536,2,TRUE,Positive,[2],0
3,3,5,25,noc,7.9856488832,79.09,76.64,985.6182991,2,FALSE,Negative,[2],0
3,3,5,26,con,6.517411981,79.09,76.64,767.3368423,2,TRUE,Positive,[2],0
3,3,5,27,noc,4.8172890783,79.09,76.64,817.2547184,1,TRUE,Positive,[1],0
3,3,5,28,con,10.750671623,79.09,76.64,NA,2,FALSE,Negative,[],0
3,3,5,29,noc,5.047500505,79.09,76.64,1047.479738,3,TRUE,Positive,[3],0
3,3,5,30,bas,4.8011365203,79.09,76.64,801.056473,1,TRUE,Positive,[1],0
3,4,5,1,bas,4.9506614283,76,76.47,950.6210271,1,TRUE,Positive,[1],0
3,4,5,2,noc,4.9834849638,76,76.47,983.4483384,3,TRUE,Positive,[3],0
3,4,5,3,con,6.3340905101,76,76.47,834.0221678,2,TRUE,Positive,[2],0
3,4,5,4,noc,7.8329103791,76,76.47,832.8782847,3,FALSE,Negative,[3],0
3,4,5,5,con,5.3500346431,76,76.47,849.9946195,1,TRUE,Positive,[1],0
3,4,5,6,con,5.832933034,76,76.47,832.8854588,1,TRUE,Positive,[1],0
3,4,5,7,noc,4.83314599,76,76.47,833.1138956,2,TRUE,Positive,[2],0
3,4,5,8,noc,7.8802942115,76,76.47,880.2734445,3,FALSE,Negative,[3],0
3,4,5,9,noc,5.0167544229,76,76.47,NA,2,TRUE,Positive,[],0
3,4,5,10,con,6.4846677377,76,76.47,984.5778733,3,TRUE,Positive,[3],0
3,4,5,11,con,6.283121164,76,76.47,783.0800076,3,TRUE,Positive,[3],0
3,4,5,12,noc,7.8849127881,76,76.47,884.833496,1,FALSE,Negative,[1],0
3,4,5,13,con,6.4327465088,76,76.47,932.7106386,2,TRUE,Positive,[2],0
3,4,5,14,noc,4.9682465305,76,76.47,968.1415628,2,TRUE,Positive,[2],0
3,4,5,15,con,6.351153417,76,76.47,851.0741249,2,TRUE,Positive,[2],0
3,4,5,16,bas,5.0167351663,76,76.47,NA,3,FALSE,Negative,[],0
3,4,5,17,noc,7.8009348917,76,76.47,800.8574875,1,FALSE,Negative,[1],0
3,4,5,18,noc,4.8513658066,76,76.47,851.2793405,2,TRUE,Positive,[2],0
3,4,5,19,bas,5.0158433188,76,76.47,NA,3,FALSE,Negative,[],0
3,4,5,20,bas,4.9996058049,76,76.47,999.5412385,2,TRUE,Positive,[2],0
3,4,5,21,con,6.2665566646,76,76.47,766.5234374,1,TRUE,Positive,[1],0
3,4,5,22,bas,5.0003579473,76,76.47,NA,1,FALSE,Negative,[],0
3,4,5,23,noc,4.8151047694,76,76.47,815.0700319,1,TRUE,Positive,[1],0
3,4,5,24,noc,7.7331250342,76,76.47,733.0880312,1,FALSE,Negative,[1],0
3,4,5,25,noc,7.8666959922,76,76.47,866.6586116,3,FALSE,Negative,[3],0
3,4,5,26,bas,4.7678829195,76,76.47,767.8006068,2,TRUE,Positive,[2],0
3,4,5,27,con,6.3497348434,76,76.47,849.6951973,1,TRUE,Positive,[1],0
3,4,5,28,con,6.2674300105,76,76.47,767.3514736,2,TRUE,Positive,[2],0
3,4,5,29,con,6.5337654124,76,76.47,783.6785687,3,TRUE,Positive,[3],0
3,4,5,30,con,7.517409338,76,76.47,767.3315562,3,TRUE,Positive,[3],0
4,1,6,1,con,6.2667939619,74.01,75.01,766.7486522,3,TRUE,Positive,[3],60
4,1,6,2,bas,4.5344741067,74.01,75.01,534.3978354,2,TRUE,Positive,[2],60
4,1,6,3,con,5.233853401,74.01,75.01,733.776752,3,TRUE,Positive,[3],60
4,1,6,4,con,5.7162598167,74.01,75.01,716.2197931,2,TRUE,Positive,[2],60
4,1,6,5,noc,4.8510370457,74.01,75.01,850.9649277,1,TRUE,Positive,[3],60
4,1,6,6,noc,4.7502338171,74.01,75.01,750.1945487,3,TRUE,Positive,[3],60
4,1,6,7,con,6.1805536624,74.01,75.01,680.5302523,2,TRUE,Positive,[2],60
4,1,6,8,con,5.9327992322,74.01,75.01,432.770536,1,TRUE,Positive,[1],60
4,1,6,9,con,6.1346922732,74.01,75.01,634.6069399,2,TRUE,Positive,[2],60
4,1,6,10,noc,7.6163212491,74.01,75.01,616.2823582,3,FALSE,Negative,[3],60
4,1,6,11,con,6.1497698454,74.01,75.01,649.7298218,3,TRUE,Positive,[3],60
4,1,6,12,con,6.1638060487,74.01,75.01,663.7833938,1,TRUE,Positive,[1],60
4,1,6,13,noc,4.7668492774,74.01,75.01,766.8149176,1,TRUE,Positive,[1],60
4,1,6,14,noc,4.7176727256,74.01,75.01,717.5998524,2,TRUE,Positive,[2],60
4,1,6,15,noc,7.7173506487,74.01,75.01,717.280041,3,FALSE,Negative,[3],60
4,1,6,16,bas,4.6341638484,74.01,75.01,634.0879545,3,TRUE,Positive,[3],60
4,1,6,17,con,6.1330305384,74.01,75.01,632.9916476,1,TRUE,Positive,[1],60
4,1,6,18,con,6.183781604,74.01,75.01,683.7132619,2,TRUE,Positive,[2],60
4,1,6,19,bas,5.0163734308,74.01,75.01,NA,1,FALSE,Negative,[],60
4,1,6,20,noc,7.7343995722,74.01,75.01,734.3146164,2,FALSE,Negative,[2],60
4,1,6,21,noc,7.750913841,74.01,75.01,750.8541831,3,FALSE,Negative,[3],60
4,1,6,22,con,6.3837927805,74.01,75.01,633.7225504,1,TRUE,Positive,[1],60
4,1,6,23,bas,4.8346957092,74.01,75.01,834.5922519,1,TRUE,Positive,[1],60
4,1,6,24,bas,4.7164799465,74.01,75.01,716.44974,3,TRUE,Positive,[3],60
4,1,6,25,noc,4.8176010983,74.01,75.01,817.5259596,2,TRUE,Positive,[2],60
4,1,6,26,noc,7.8331876498,74.01,75.01,833.1544227,1,FALSE,Negative,[1],60
4,1,6,27,con,7.5342887144,74.01,75.01,784.2109327,3,TRUE,Positive,[3],60
4,1,6,28,noc,4.6844757871,74.01,75.01,684.3995156,2,TRUE,Positive,[2],60
4,1,6,29,bas,4.6826966244,74.01,75.01,682.6607543,2,TRUE,Positive,[2],60
4,1,6,30,noc,7.7680107172,74.01,75.01,767.9197202,1,FALSE,Negative,[1],60
4,2,6,1,bas,4.6850727429,73.94,74.04,684.9994921,2,TRUE,Positive,[2],0
4,2,6,2,con,6.1510192616,73.94,74.04,650.946766,1,TRUE,Positive,[1],0
4,2,6,3,con,5.100589895,73.94,74.04,600.5204201,3,TRUE,Positive,[3],0
4,2,6,4,con,5.7177557934,73.94,74.04,717.6697048,2,TRUE,Positive,[2],0
4,2,6,5,noc,4.7842051747,73.94,74.04,784.1338117,2,TRUE,Positive,[2],0
4,2,6,6,noc,4.5703069395,73.94,74.04,570.1981962,1,TRUE,Positive,[1],0
4,2,6,7,con,6.2803140116,73.94,74.04,780.2913567,3,TRUE,Positive,[3],0
4,2,6,8,con,5.9997368259,73.94,74.04,499.6979351,2,TRUE,Positive,[2],0
4,2,6,9,bas,4.9178908163,73.94,74.04,917.8130346,3,TRUE,Positive,[3],0
4,2,6,10,con,5.9669087844,73.94,74.04,466.8751797,2,TRUE,Positive,[2],0
4,2,6,11,noc,7.5842899039,73.94,74.04,584.2113669,3,FALSE,Negative,[3],0
4,2,6,12,noc,7.7503848496,73.94,74.04,750.3482242,1,FALSE,Negative,[1],0
4,2,6,13,bas,4.6185316094,73.94,74.04,618.4591139,3,TRUE,Positive,[3],0
4,2,6,14,noc,4.6844512442,73.94,74.04,684.3776159,1,TRUE,Positive,[1],0
4,2,6,15,noc,4.7494680824,73.94,74.04,749.4329674,2,TRUE,Positive,[2],0
4,2,6,16,bas,4.7005996366,73.94,74.04,700.5346927,2,TRUE,Positive,[2],0
4,2,6,17,bas,4.484898829,73.94,74.04,484.7889529,1,TRUE,Positive,[1],0
4,2,6,18,noc,7.5001013805,73.94,74.04,500.0300177,3,FALSE,Negative,[3],0
4,2,6,19,con,6.1505910844,73.94,74.04,650.472524,1,TRUE,Positive,[1],0
4,2,6,20,noc,7.7013170409,73.94,74.04,701.2135837,2,FALSE,Negative,[2],0
4,2,6,21,con,6.1513504002,73.94,74.04,651.2714857,3,TRUE,Positive,[3],0
4,2,6,22,bas,4.8674044351,73.94,74.04,867.3217448,1,FALSE,Negative,[3],0
4,2,6,23,noc,7.8333205584,73.94,74.04,833.2624109,3,FALSE,Negative,[3],0
4,2,6,24,con,6.2163555335,73.94,74.04,716.3139995,2,TRUE,Positive,[2],0
4,2,6,25,con,6.3338606884,73.94,74.04,833.8082046,1,TRUE,Positive,[1],0
4,2,6,26,noc,7.684150312,73.94,74.04,684.0649786,3,FALSE,Negative,[3],0
4,2,6,27,con,6.4347477399,73.94,74.04,684.6658048,3,TRUE,Positive,[3],0
4,2,6,28,con,7.4338777929,73.94,74.04,683.8018991,1,TRUE,Positive,[1],0
4,2,6,29,noc,4.6678301201,73.94,74.04,667.7553591,1,TRUE,Positive,[1],0
4,2,6,30,noc,4.5348294107,73.94,74.04,534.7285966,2,TRUE,Positive,[2],0
4,3,6,1,noc,7.6668325507,74.7,74.14,666.7864858,3,FALSE,Negative,[3],0
4,3,6,2,con,6.2164756042,74.7,74.14,716.4287842,3,TRUE,Positive,[3],0
4,3,6,3,con,5.1516384947,74.7,74.14,651.5316393,1,TRUE,Positive,[1],0
4,3,6,4,noc,4.6515556156,74.7,74.14,651.4521583,2,TRUE,Positive,[2],0
4,3,6,5,bas,4.8329293844,74.7,74.14,832.892759,3,TRUE,Positive,[3],0
4,3,6,6,bas,4.5173077555,74.7,74.14,517.2299738,1,TRUE,Positive,[1],0
4,3,6,7,con,5.6005198538,74.7,74.14,600.4454703,1,TRUE,Positive,[1],0
4,3,6,8,con,5.9668596988,74.7,74.14,466.8007961,3,TRUE,Positive,[3],0
4,3,6,9,con,5.9848208585,74.7,74.14,484.7241977,2,TRUE,Positive,[2],0
4,3,6,10,noc,7.6996345391,74.7,74.14,699.5982913,2,FALSE,Negative,[2],0
4,3,6,11,noc,7.5842000395,74.7,74.14,584.1347179,1,FALSE,Negative,[1],0
4,3,6,12,con,6.1306770749,74.7,74.14,630.6378064,1,TRUE,Positive,[1],0
4,3,6,13,bas,4.6343284738,74.7,74.14,634.2529575,3,TRUE,Positive,[3],0
4,3,6,14,noc,4.6174071727,74.7,74.14,617.3395857,2,TRUE,Positive,[1],0
4,3,6,15,noc,4.7183735161,74.7,74.14,718.2825191,3,TRUE,Positive,[3],0
4,3,6,16,bas,4.6361129225,74.7,74.14,636.0302322,2,TRUE,Positive,[2],0
4,3,6,17,con,9.0343496938,74.7,74.14,534.2756879,3,FALSE,Negative,[1],0
4,3,6,18,bas,4.8002973074,74.7,74.14,800.2221688,2,TRUE,Positive,[2],0
4,3,6,19,noc,7.7835621538,74.7,74.14,783.5043839,1,FALSE,Negative,[1],0
4,3,6,20,noc,4.7345698614,74.7,74.14,734.4924572,1,TRUE,Positive,[1],0
4,3,6,21,noc,4.6177707833,74.7,74.14,617.7039514,3,TRUE,Positive,[3],0
4,3,6,22,con,5.4665329023,74.7,74.14,466.4958994,1,TRUE,Positive,[1],0
4,3,6,23,con,5.8641315614,74.7,74.14,864.1092841,3,TRUE,Positive,[3],0
4,3,6,24,con,5.5491963751,74.7,74.14,549.1537084,2,TRUE,Positive,[2],0
4,3,6,25,noc,4.7507696049,74.7,74.14,750.698242,2,TRUE,Positive,[2],0
4,3,6,26,con,6.3008967175,74.7,74.14,550.817803,2,TRUE,Positive,[2],0
4,3,6,27,noc,7.6675616599,74.7,74.14,667.4891643,1,FALSE,Negative,[1],0
4,3,6,28,con,7.4345461115,74.7,74.14,684.4630437,2,TRUE,Positive,[2],0
4,3,6,29,noc,7.650487816,74.7,74.14,650.4262702,3,FALSE,Negative,[3],0
4,3,6,30,bas,4.9844474307,74.7,74.14,984.3564336,1,TRUE,Positive,[1],0
4,4,6,1,bas,4.7022307875,73.79,74.35,702.1322388,1,TRUE,Positive,[1],0
4,4,6,2,noc,7.7667054191,73.79,74.35,766.6706817,3,FALSE,Negative,[3],0
4,4,6,3,con,6.1845469611,73.79,74.35,684.4506778,2,TRUE,Positive,[2],0
4,4,6,4,noc,4.7162737872,73.79,74.35,716.2382945,3,TRUE,Positive,[3],0
4,4,6,5,con,5.0996810572,73.79,74.35,599.6493404,1,TRUE,Positive,[1],0
4,4,6,6,con,5.7180412447,73.79,74.35,717.940053,1,TRUE,Positive,[1],0
4,4,6,7,noc,7.6700117843,73.79,74.35,669.9166337,2,FALSE,Negative,[2],0
4,4,6,8,noc,4.5844873788,73.79,74.35,584.3827889,3,TRUE,Positive,[3],0
4,4,6,9,noc,7.7332634305,73.79,74.35,733.2256724,2,FALSE,Negative,[2],0
4,4,6,10,con,6.2840188383,73.79,74.35,783.9372808,3,TRUE,Positive,[3],0
4,4,6,11,con,6.1508221641,73.79,74.35,650.7489134,3,TRUE,Positive,[3],0
4,4,6,12,noc,7.7016002269,73.79,74.35,701.5148936,1,FALSE,Negative,[1],0
4,4,6,13,con,5.9676730086,73.79,74.35,467.5940941,2,TRUE,Positive,[2],0
4,4,6,14,noc,4.7009398374,73.79,74.35,700.8673417,2,TRUE,Positive,[2],0
4,4,6,15,con,6.2467387369,73.79,74.35,746.678324,2,TRUE,Positive,[2],0
4,4,6,16,bas,4.8175965673,73.79,74.35,817.5131219,3,TRUE,Positive,[3],0
4,4,6,17,noc,4.6665516302,73.79,74.35,666.5146273,1,TRUE,Positive,[1],0
4,4,6,18,noc,4.8639507,73.79,74.35,863.9295554,2,TRUE,Positive,[2],0
4,4,6,19,bas,4.7835481833,73.79,74.35,783.4639826,3,TRUE,Positive,[3],0
4,4,6,20,bas,4.6828450139,73.79,74.35,682.8083885,2,TRUE,Positive,[2],0
4,4,6,21,con,6.1510845831,73.79,74.35,651.0030256,1,TRUE,Positive,[1],0
4,4,6,22,bas,4.685178088,73.79,74.35,685.0674567,1,TRUE,Positive,[1],0
4,4,6,23,noc,4.6504508131,73.79,74.35,650.4217393,1,TRUE,Positive,[1],0
4,4,6,24,noc,7.6667789341,73.79,74.35,666.6728338,1,FALSE,Negative,[1],0
4,4,6,25,noc,7.6330567803,73.79,74.35,633.0209101,3,FALSE,Negative,[3],0
4,4,6,26,bas,4.5342011156,73.79,74.35,534.1622247,2,TRUE,Positive,[2],0
4,4,6,27,con,6.1663441495,73.79,74.35,666.3082793,1,TRUE,Positive,[1],0
4,4,6,28,con,6.1337468099,73.79,74.35,633.7082967,2,TRUE,Positive,[2],0
4,4,6,29,con,6.2999033015,73.79,74.35,549.8651657,3,TRUE,Positive,[3],0
4,4,6,30,con,7.3839423025,73.79,74.35,633.8437538,3,TRUE,Positive,[3],0
5,1,1,1,con,6.1664241338,77.4,75.74,666.3939273,3,TRUE,Positive,[3],70
5,1,1,2,bas,4.9833165813,77.4,75.74,983.2776905,2,TRUE,Positive,[2],70
5,1,1,3,con,5.2842324419,77.4,75.74,784.1437104,3,TRUE,Positive,[3],70
5,1,1,4,con,9.0165157727,77.4,75.74,NA,2,FALSE,Negative,[],70
5,1,1,5,noc,5.0162129527,77.4,75.74,NA,1,TRUE,Positive,[],70
5,1,1,6,noc,4.949737921,77.4,75.74,949.7024284,3,TRUE,Positive,[3],70
5,1,1,7,con,5.8833142403,77.4,75.74,883.2757271,2,TRUE,Positive,[2],70
5,1,1,8,con,5.9667271803,77.4,75.74,966.6947084,1,TRUE,Positive,[1],70
5,1,1,9,con,5.9839097611,77.4,75.74,983.8319795,2,TRUE,Positive,[2],70
5,1,1,10,noc,4.6696819031,77.4,75.74,669.616204,3,TRUE,Positive,[3],70
5,1,1,11,con,6.1832608504,77.4,75.74,683.2302663,3,TRUE,Positive,[3],70
5,1,1,12,con,6.3170427248,77.4,75.74,817.003834,1,TRUE,Positive,[1],70
5,1,1,13,noc,4.7334783748,77.4,75.74,733.4413719,1,TRUE,Positive,[1],70
5,1,1,14,noc,7.7333439559,77.4,75.74,733.3095961,2,FALSE,Negative,[2],70
5,1,1,15,noc,4.7164305904,77.4,75.74,716.393965,3,TRUE,Positive,[3],70
5,1,1,16,bas,5.0168170824,77.4,75.74,NA,3,FALSE,Negative,[],70
5,1,1,17,con,6.2800771625,77.4,75.74,780.05413,1,TRUE,Positive,[1],70
5,1,1,18,con,6.3501679103,77.4,75.74,850.1286419,2,TRUE,Positive,[2],70
5,1,1,19,bas,5.0166694482,77.4,75.74,NA,1,FALSE,Negative,[],70
5,1,1,20,noc,7.8337182143,77.4,75.74,833.6815889,2,FALSE,Negative,[2],70
5,1,1,21,noc,7.6337395854,77.4,75.74,633.7063582,3,FALSE,Negative,[3],70
5,1,1,22,con,6.4834298556,77.4,75.74,733.39172,1,TRUE,Positive,[1],70
5,1,1,23,bas,4.9336254049,77.4,75.74,933.5853813,1,TRUE,Positive,[1],70
5,1,1,24,bas,4.9832625872,77.4,75.74,983.2270946,3,TRUE,Positive,[3],70
5,1,1,25,noc,7.8172243413,77.4,75.74,817.1896038,2,FALSE,Negative,[2],70
5,1,1,26,noc,8.0144409648,77.4,75.74,1014.4198203,1,FALSE,Negative,[1],70
5,1,1,27,con,7.4846188584,77.4,75.74,734.5384336,3,TRUE,Positive,[3],70
5,1,1,28,noc,7.8504450548,77.4,75.74,850.3744471,2,FALSE,Negative,[2],70
5,1,1,29,bas,4.7671023449,77.4,75.74,767.067985,2,TRUE,Positive,[2],70
5,1,1,30,noc,4.7675395837,77.4,75.74,767.4738846,1,TRUE,Positive,[1],70
5,2,1,1,bas,4.7183622951,78.32,75.97,718.2897995,2,TRUE,Positive,[2],0
5,2,1,2,con,6.1830882958,78.32,75.97,683.052048,1,TRUE,Positive,[1],0
5,2,1,3,con,5.199052045,78.32,75.97,699.0127766,3,TRUE,Positive,[3],0
5,2,1,4,con,5.6330353967,78.32,75.97,632.9927301,2,TRUE,Positive,[2],0
5,2,1,5,noc,4.7671129171,78.32,75.97,767.0759142,2,TRUE,Positive,[2],0
5,2,1,6,noc,7.7839677576,78.32,75.97,783.8994154,1,FALSE,Negative,[1],0
5,2,1,7,con,6.280256891,78.32,75.97,780.2342362,3,TRUE,Positive,[3],0
5,2,1,8,con,6.299939436,78.32,75.97,799.9009227,2,TRUE,Positive,[2],0
5,2,1,9,bas,4.8012013119,78.32,75.97,801.1167337,3,TRUE,Positive,[3],0
5,2,1,10,con,6.3299790291,78.32,75.97,829.9563743,2,TRUE,Positive,[2],0
5,2,1,11,noc,4.6333903229,78.32,75.97,633.3529424,3,TRUE,Positive,[3],0
5,2,1,12,noc,4.8800126716,78.32,75.97,879.9926598,1,TRUE,Positive,[1],0
5,2,1,13,bas,4.8165605538,78.32,75.97,816.5224181,3,TRUE,Positive,[3],0
5,2,1,14,noc,4.9634044671,78.32,75.97,963.3837001,1,TRUE,Positive,[1],0
5,2,1,15,noc,7.8500259398,78.32,75.97,849.9930903,2,FALSE,Negative,[2],0
5,2,1,16,bas,4.8995547564,78.32,75.97,899.4849039,2,TRUE,Positive,[2],0
5,2,1,17,bas,4.7331770651,78.32,75.97,733.1298675,1,TRUE,Positive,[1],0
5,2,1,18,noc,7.783394212,78.32,75.97,783.3560763,3,FALSE,Negative,[3],0
5,2,1,19,con,9.5160286931,78.32,75.97,NA,1,FALSE,Negative,[],0
5,2,1,20,noc,7.7998431528,78.32,75.97,799.8050171,2,FALSE,Negative,[2],0
5,2,1,21,con,5.7999398136,78.32,75.97,799.8979021,3,TRUE,Positive,[3],0
5,2,1,22,bas,4.8335713353,78.32,75.97,833.5324444,1,TRUE,Positive,[1],0
5,2,1,23,noc,4.833113707,78.32,75.97,833.0763265,3,TRUE,Positive,[3],0
5,2,1,24,con,9.0162688347,78.32,75.97,NA,2,FALSE,Negative,[],0
5,2,1,25,con,5.1835987854,78.32,75.97,683.5576291,1,TRUE,Positive,[1],0
5,2,1,26,noc,4.9966655818,78.32,75.97,996.6451924,3,TRUE,Positive,[3],0
5,2,1,27,con,5.9498674313,78.32,75.97,699.8315611,3,TRUE,Positive,[3],0
5,2,1,28,con,6.9331262427,78.32,75.97,683.0873519,1,TRUE,Positive,[1],0
5,2,1,29,noc,7.6664811485,78.32,75.97,666.4399922,1,FALSE,Negative,[1],0
5,2,1,30,noc,8.0163330235,78.32,75.97,NA,2,FALSE,Negative,[],0
5,3,1,1,noc,4.9341985729,75.11,75.57,934.1638354,3,TRUE,Positive,[3],0
5,3,1,2,con,6.2297074729,75.11,75.57,729.684818,3,TRUE,Positive,[3],0
5,3,1,3,con,5.1499457416,75.11,75.57,649.905718,1,TRUE,Positive,[1],0
5,3,1,4,noc,7.6660374908,75.11,75.57,665.9993551,2,FALSE,Negative,[2],0
5,3,1,5,bas,4.7167303898,75.11,75.57,716.6903662,3,TRUE,Positive,[3],0
5,3,1,6,bas,4.9005058831,75.11,75.57,900.4734111,1,TRUE,Positive,[1],0
5,3,1,7,con,5.8170491437,75.11,75.57,816.9853325,1,TRUE,Positive,[1],0
5,3,1,8,con,6.2497898761,75.11,75.57,749.7532508,3,TRUE,Positive,[3],0
5,3,1,9,con,6.1467321493,75.11,75.57,646.709872,2,TRUE,Positive,[2],0
5,3,1,10,noc,7.7838605246,75.11,75.57,783.8057753,2,FALSE,Negative,[3],0
5,3,1,11,noc,4.766394758,75.11,75.57,766.3581326,1,TRUE,Positive,[1],0
5,3,1,12,con,6.300321548,75.11,75.57,800.277371,1,TRUE,Positive,[1],0
5,3,1,13,bas,5.0162899792,75.11,75.57,1016.254109,3,TRUE,Positive,[3],0
5,3,1,14,noc,4.9163337031,75.11,75.57,916.3008536,2,TRUE,Positive,[2],0
5,3,1,15,noc,7.749605239,75.11,75.57,749.5712567,3,FALSE,Negative,[3],0
5,3,1,16,bas,4.8168014505,75.11,75.57,816.7512322,2,TRUE,Positive,[2],0
5,3,1,17,con,6.2496075045,75.11,75.57,749.5720119,3,TRUE,Positive,[3],0
5,3,1,18,bas,4.7997408284,75.11,75.57,799.7053357,2,TRUE,Positive,[2],0
5,3,1,19,noc,4.6674745643,75.11,75.57,667.4050893,1,TRUE,Positive,[1],0
5,3,1,20,noc,7.8340285859,75.11,75.57,833.9625092,1,FALSE,Negative,[1],0
5,3,1,21,noc,4.8464362768,75.11,75.57,846.4147547,3,TRUE,Positive,[3],0
5,3,1,22,con,6.2466846496,75.11,75.57,746.6619947,1,TRUE,Positive,[1],0
5,3,1,23,con,6.2669229939,75.11,75.57,766.8814599,3,TRUE,Positive,[3],0
5,3,1,24,con,6.2998642974,75.11,75.57,799.8216307,2,TRUE,Positive,[2],0
5,3,1,25,noc,7.7341085576,75.11,75.57,734.040593,2,FALSE,Negative,[2],0
5,3,1,26,con,6.5668431732,75.11,75.57,816.802772,2,TRUE,Positive,[2],0
5,3,1,27,noc,7.8500274501,75.11,75.57,849.9908248,1,FALSE,Negative,[1],0
5,3,1,28,con,7.5840525623,75.11,75.57,833.9725151,2,TRUE,Positive,[2],0
5,3,1,29,noc,4.8167278222,75.11,75.57,816.6904417,3,TRUE,Positive,[3],0
5,3,1,30,bas,4.7833594745,75.11,75.57,783.2835807,1,TRUE,Positive,[1],0
5,4,1,1,bas,4.9339943015,74.62,75.69,933.9557883,1,TRUE,Positive,[1],0
5,4,1,2,noc,7.8840320219,74.62,75.69,883.9531075,3,FALSE,Negative,[3],0
5,4,1,3,con,6.1832423489,74.62,75.69,683.2015701,2,TRUE,Positive,[2],0
5,4,1,4,noc,7.9509295668,74.62,75.69,950.8616022,3,FALSE,Negative,[3],0
5,4,1,5,con,5.2666786989,74.62,75.69,766.6454718,1,TRUE,Positive,[1],0
5,4,1,6,con,5.6496417889,74.62,75.69,649.6013877,1,TRUE,Positive,[1],0
5,4,1,7,noc,4.6834379359,74.62,75.69,683.3994226,2,TRUE,Positive,[2],0
5,4,1,8,noc,7.8166232323,74.62,75.69,816.5628193,3,FALSE,Negative,[3],0
5,4,1,9,noc,7.6498015056,74.62,75.69,649.770544,2,FALSE,Negative,[2],0
5,4,1,10,con,6.3134160588,74.62,75.69,813.3926488,3,TRUE,Positive,[3],0
5,4,1,11,con,6.2329648646,74.62,75.69,732.9282392,3,TRUE,Positive,[3],0
5,4,1,12,noc,8.0001653805,74.62,75.69,1000.128,1,FALSE,Negative,[1],0
5,4,1,13,con,6.2011951951,74.62,75.69,701.1291184,2,TRUE,Positive,[2],0
5,4,1,14,noc,4.7497709971,74.62,75.69,749.7336166,2,TRUE,Positive,[2],0
5,4,1,15,con,6.2965751888,74.62,75.69,796.5529116,2,TRUE,Positive,[2],0
5,4,1,16,bas,4.7163233574,74.62,75.69,716.2871096,3,TRUE,Positive,[3],0
5,4,1,17,noc,4.6995327057,74.62,75.69,699.5058974,1,TRUE,Positive,[1],0
5,4,1,18,noc,4.8330457424,74.62,75.69,833.0076067,2,TRUE,Positive,[2],0
5,4,1,19,bas,4.6333616267,74.62,75.69,633.3227359,3,TRUE,Positive,[3],0
5,4,1,20,bas,4.6006094913,74.62,75.69,600.5381285,2,TRUE,Positive,[2],0
5,4,1,21,con,6.0832634179,74.62,75.69,583.2245271,1,TRUE,Positive,[1],0
5,4,1,22,bas,4.6174420545,74.62,75.69,617.4027861,1,TRUE,Positive,[1],0
5,4,1,23,noc,4.8332303796,74.62,75.69,833.2016834,1,TRUE,Positive,[1],0
5,4,1,24,noc,7.6844211569,74.62,75.69,684.3520596,1,FALSE,Negative,[1],0
5,4,1,25,noc,4.9008200305,74.62,75.69,900.7875586,3,TRUE,Positive,[3],0
5,4,1,26,bas,4.7835018226,74.62,75.69,783.4606662,2,TRUE,Positive,[2],0
5,4,1,27,con,6.1501447268,74.62,75.69,650.1099894,1,TRUE,Positive,[1],0
5,4,1,28,con,6.2799963601,74.62,75.69,779.9721949,2,TRUE,Positive,[2],0
5,4,1,29,con,6.4502620035,74.62,75.69,700.2234902,3,TRUE,Positive,[3],0
5,4,1,30,con,7.5166313125,74.62,75.69,766.5882683,3,TRUE,Positive,[3],0
6,1,2,1,con,9.5007468554,90.92,77.81,NA,3,FALSE,Negative,[],75
6,1,2,2,bas,4.9676076993,90.92,77.81,967.5219884,2,FALSE,Negative,[3],75
6,1,2,3,con,8.0180272297,90.92,77.81,NA,3,FALSE,Negative,[],75
6,1,2,4,con,4.5498070938,90.92,77.81,549.7678254,2,TRUE,Positive,[2],75
6,1,2,5,noc,7.9002540365,90.92,77.81,900.2170336,1,FALSE,Negative,[1],75
6,1,2,6,noc,4.9335351629,90.92,77.81,933.4362368,3,TRUE,Positive,[3],75
6,1,2,7,con,5.5166332005,90.92,77.81,1016.5924217,2,TRUE,Positive,[2],75
6,1,2,8,con,9.0162408937,90.92,77.81,NA,1,FALSE,Negative,[],75
6,1,2,9,con,9.0000921297,90.92,77.81,NA,2,FALSE,Negative,[],75
6,1,2,10,noc,5.0010304187,90.92,77.81,1000.9420648,3,TRUE,Positive,[3],75
6,1,2,11,con,5.384027491,90.92,77.81,883.9897328,3,TRUE,Positive,[3],75
6,1,2,12,con,8.5162941326,90.92,77.81,NA,1,FALSE,Negative,[],75
6,1,2,13,noc,7.8335849282,90.92,77.81,833.5486804,1,FALSE,Negative,[1],75
6,1,2,14,noc,8.0632312329,90.92,77.81,NA,2,FALSE,Negative,[],75
6,1,2,15,noc,8.0175099436,90.92,77.81,NA,3,FALSE,Negative,[],75
6,1,2,16,bas,4.8839614142,90.92,77.81,883.892317,3,TRUE,Positive,[3],75
6,1,2,17,con,8.5166830411,90.92,77.81,1016.6460382,1,FALSE,Negative,[2],75
6,1,2,18,con,8.5166490588,90.92,77.81,NA,2,FALSE,Negative,[],75
6,1,2,19,bas,4.8830223702,90.92,77.81,882.9914085,1,TRUE,Positive,[1],75
6,1,2,20,noc,5.0298281477,90.92,77.81,NA,2,TRUE,Positive,[],75
6,1,2,21,noc,7.9996941593,90.92,77.81,999.660177,3,FALSE,Negative,[3],75
6,1,2,22,con,4.9675295401,90.92,77.81,967.4910269,1,TRUE,Positive,[1],75
6,1,2,23,bas,5.0001612271,90.92,77.81,NA,1,FALSE,Negative,[],75
6,1,2,24,bas,5.0167049408,90.92,77.81,NA,3,FALSE,Negative,[],75
6,1,2,25,noc,5.0005788318,90.92,77.81,NA,2,TRUE,Positive,[],75
6,1,2,26,noc,5.0170172004,90.92,77.81,NA,1,TRUE,Positive,[],75
6,1,2,27,con,9.4179138798,90.92,77.81,917.8111778,3,FALSE,Negative,[1],75
6,1,2,28,noc,4.9976235048,90.92,77.81,997.6023603,2,TRUE,Positive,[2],75
6,1,2,29,bas,5.0159297669,90.92,77.81,NA,2,FALSE,Negative,[],75
6,1,2,30,noc,8.0134388647,90.92,77.81,NA,1,FALSE,Negative,[],75
6,2,2,1,bas,5.0003692743,79.51,77.28,NA,2,FALSE,Negative,[],0
6,2,2,2,con,6.3024099489,79.51,77.28,802.3332999,1,TRUE,Positive,[1],0
6,2,2,3,con,5.2676641854,79.51,77.28,767.5743211,3,TRUE,Positive,[3],0
6,2,2,4,con,5.8516959809,79.51,77.28,851.5970546,2,TRUE,Positive,[2],0
6,2,2,5,noc,4.8351062023,79.51,77.28,835.0121846,2,TRUE,Positive,[2],0
6,2,2,6,noc,7.883089202,79.51,77.28,883.052199,1,FALSE,Negative,[2],0
6,2,2,7,con,6.3178601877,79.51,77.28,817.7571081,3,TRUE,Positive,[3],0
6,2,2,8,con,6.4510503927,79.51,77.28,950.9529768,2,TRUE,Positive,[2],0
6,2,2,9,bas,4.9335604609,79.51,77.28,933.518927,3,TRUE,Positive,[3],0
6,2,2,10,con,6.3498371494,79.51,77.28,849.7975033,2,TRUE,Positive,[2],0
6,2,2,11,noc,7.9301059719,79.51,77.28,930.0833171,3,FALSE,Negative,[3],0
6,2,2,12,noc,5.0004349734,79.51,77.28,NA,1,TRUE,Positive,[],0
6,2,2,13,bas,4.8851085055,79.51,77.28,884.9933433,3,FALSE,Negative,[1],0
6,2,2,14,noc,4.8834494144,79.51,77.28,883.4154321,1,TRUE,Positive,[1],0
6,2,2,15,noc,4.9174826823,79.51,77.28,917.3773371,2,TRUE,Positive,[3],0
6,2,2,16,bas,5.0002378761,79.51,77.28,1000.1978525,2,TRUE,Positive,[2],0
6,2,2,17,bas,4.9516280917,79.51,77.28,951.5265224,1,TRUE,Positive,[1],0
6,2,2,18,noc,5.0161970943,79.51,77.28,NA,3,TRUE,Positive,[],0
6,2,2,19,con,6.5018950793,79.51,77.28,1001.7825601,1,TRUE,Positive,[1],0
6,2,2,20,noc,8.016499159,79.51,77.28,1016.4621562,2,FALSE,Negative,[1],0
6,2,2,21,con,6.3674029749,79.51,77.28,867.321795,3,TRUE,Positive,[3],0
6,2,2,22,bas,5.0163934365,79.51,77.28,NA,1,FALSE,Negative,[],0
6,2,2,23,noc,7.7674716191,79.51,77.28,767.3866634,3,FALSE,Negative,[3],0
6,2,2,24,con,9.516528233,79.51,77.28,NA,2,FALSE,Negative,[],0
6,2,2,25,con,9.0001974748,79.51,77.28,NA,1,FALSE,Negative,[],0
6,2,2,26,noc,5.016680398,79.51,77.28,NA,3,TRUE,Positive,[],0
6,2,2,27,con,5.3499058691,79.51,77.28,849.8658455,3,TRUE,Positive,[3],0
6,2,2,28,con,6.2336682981,79.51,77.28,733.6286521,1,TRUE,Positive,[1],0
6,2,2,29,noc,7.9169166882,79.51,77.28,916.8796852,1,FALSE,Negative,[3],0
6,2,2,30,noc,8.0968604891,79.51,77.28,NA,2,FALSE,Negative,[],0
6,3,2,1,noc,5.0019841884,81.05,77.1,NA,3,TRUE,Positive,[],0
6,3,2,2,con,9.5163945692,81.05,77.1,NA,3,FALSE,Negative,[],0
6,3,2,3,con,5.0182503801,81.05,77.1,1018.1348402,1,TRUE,Positive,[1],0
6,3,2,4,noc,4.8841203758,81.05,77.1,884.0399511,2,TRUE,Positive,[2],0
6,3,2,5,bas,5.000354171,81.05,77.1,NA,3,FALSE,Negative,[],0
6,3,2,6,bas,4.9167562163,81.05,77.1,916.705998,1,TRUE,Positive,[1],0
6,3,2,7,con,5.3666693349,81.05,77.1,866.6357301,1,TRUE,Positive,[1],0
6,3,2,8,con,5.9347721186,81.05,77.1,934.6758354,3,TRUE,Positive,[3],0
6,3,2,9,con,6.3999746266,81.05,77.1,899.8987328,2,TRUE,Positive,[2],0
6,3,2,10,noc,4.8507444765,81.05,77.1,850.6708483,2,TRUE,Positive,[2],0
6,3,2,11,noc,4.8843133197,81.05,77.1,884.2325173,1,TRUE,Positive,[1],0
6,3,2,12,con,9.3685927327,81.05,77.1,868.5172165,1,FALSE,Negative,[2],0
6,3,2,13,bas,5.0004636695,81.05,77.1,NA,3,FALSE,Negative,[],0
6,3,2,14,noc,7.8498450784,81.05,77.1,849.8073204,2,FALSE,Negative,[2],0
6,3,2,15,noc,8.0002510914,81.05,77.1,NA,3,FALSE,Negative,[],0
6,3,2,16,bas,4.8839380043,81.05,77.1,883.8677742,2,TRUE,Positive,[2],0
6,3,2,17,con,5.8630385156,81.05,77.1,863.0154831,3,TRUE,Positive,[3],0
6,3,2,18,bas,4.9170046647,81.05,77.1,916.9650186,2,TRUE,Positive,[2],0
6,3,2,19,noc,4.7831963595,81.05,77.1,783.1612445,1,TRUE,Positive,[3],0
6,3,2,20,noc,4.9174358622,81.05,77.1,917.3407118,1,TRUE,Positive,[1],0
6,3,2,21,noc,8.017432162,81.05,77.1,NA,3,FALSE,Negative,[],0
6,3,2,22,con,5.8178673618,81.05,77.1,817.7665478,1,TRUE,Positive,[1],0
6,3,2,23,con,9.016565991,81.05,77.1,1016.5282328,3,FALSE,Negative,[1],0
6,3,2,24,con,5.6167227626,81.05,77.1,616.6834942,2,TRUE,Positive,[2],0
6,3,2,25,noc,7.8002010997,81.05,77.1,800.1697605,2,FALSE,Negative,[2],0
6,3,2,26,con,6.0002495811,81.05,77.1,750.2106903,2,TRUE,Positive,[2],0
6,3,2,27,noc,8.097388725,81.05,77.1,NA,1,FALSE,Negative,[],0
6,3,2,28,con,7.1345343934,81.05,77.1,884.4611427,2,TRUE,Positive,[2],0
6,3,2,29,noc,8.0172150527,81.05,77.1,NA,3,FALSE,Negative,[],0
6,3,2,30,bas,5.016784988,81.05,77.1,NA,1,FALSE,Negative,[],0
6,4,2,1,bas,5.0004923657,82.67,76.38,NA,1,FALSE,Negative,[],0
6,4,2,2,noc,4.6182255353,82.67,76.38,618.1420898,3,TRUE,Positive,[3],0
6,4,2,3,con,6.4009506736,82.67,76.38,900.8751574,2,TRUE,Positive,[2],0
6,4,2,4,noc,4.7341066697,82.67,76.38,734.0349293,3,TRUE,Positive,[3],0
6,4,2,5,con,5.4844950117,82.67,76.38,984.4153421,1,TRUE,Positive,[1],0
6,4,2,6,con,9.0166113008,82.67,76.38,NA,1,FALSE,Negative,[],0
6,4,2,7,noc,4.9499308649,82.67,76.38,949.8946171,2,TRUE,Positive,[2],0
6,4,2,8,noc,7.9808147294,82.67,76.38,980.7935847,3,FALSE,Negative,[3],0
6,4,2,9,noc,7.8509317568,82.67,76.38,850.8615267,2,FALSE,Negative,[2],0
6,4,2,10,con,5.7006152306,82.67,76.38,700.5514194,3,TRUE,Positive,[3],0
6,4,2,11,con,5.7674470764,82.67,76.38,767.3726929,3,TRUE,Positive,[3],0
6,4,2,12,noc,7.8496819636,82.67,76.38,849.6019164,1,FALSE,Negative,[3],0
6,4,2,13,con,5.9513770003,82.67,76.38,951.2927998,2,TRUE,Positive,[2],0
6,4,2,14,noc,4.8667625973,82.67,76.38,866.721441,2,TRUE,Positive,[2],0
6,4,2,15,con,9.5169700027,82.67,76.38,NA,2,FALSE,Negative,[],0
6,4,2,16,bas,5.0162843156,82.67,76.38,NA,3,FALSE,Negative,[],0
6,4,2,17,noc,5.0004455457,82.67,76.38,NA,1,TRUE,Positive,[],0
6,4,2,18,noc,8.0166728464,82.67,76.38,NA,2,FALSE,Negative,[],0
6,4,2,19,bas,5.0161665102,82.67,76.38,NA,3,FALSE,Negative,[],0
6,4,2,20,bas,4.9171084993,82.67,76.38,917.0201455,2,TRUE,Positive,[2],0
6,4,2,21,con,9.001096873,82.67,76.38,NA,1,FALSE,Negative,[],0
6,4,2,22,bas,5.0167751708,82.67,76.38,NA,1,FALSE,Negative,[],0
6,4,2,23,noc,4.6329798922,82.67,76.38,632.9417565,1,TRUE,Positive,[1],0
6,4,2,24,noc,7.8840176739,82.67,76.38,883.9523523,1,FALSE,Negative,[1],0
6,4,2,25,noc,8.000291115,82.67,76.38,NA,3,FALSE,Negative,[],0
6,4,2,26,bas,4.9680498467,82.67,76.38,968.0120887,2,TRUE,Positive,[2],0
6,4,2,27,con,8.5165067107,82.67,76.38,NA,1,FALSE,Negative,[],0
6,4,2,28,con,4.7667123036,82.67,76.38,766.6719025,2,TRUE,Positive,[2],0
6,4,2,29,con,5.6001805592,82.67,76.38,850.1337392,3,TRUE,Positive,[3],0
6,4,2,30,con,6.9505561391,82.67,76.38,700.4798678,3,TRUE,Positive,[3],0
7,1,5,1,con,9.5165072833,81.53,77.06,NA,3,FALSE,Negative,[],75
7,1,5,2,bas,4.6684908872,81.53,77.06,668.4123501,2,TRUE,Positive,[2],75
7,1,5,3,con,8.0003998587,81.53,77.06,NA,3,FALSE,Negative,[],75
7,1,5,4,con,4.8681705473,81.53,77.06,868.0893672,2,TRUE,Positive,[2],75
7,1,5,5,noc,4.899700087,81.53,77.06,899.6713911,1,TRUE,Positive,[1],75
7,1,5,6,noc,4.8500100248,81.53,77.06,849.975287,3,TRUE,Positive,[3],75
7,1,5,7,con,5.3507204438,81.53,77.06,850.6879718,2,TRUE,Positive,[2],75
7,1,5,8,con,5.8173692636,81.53,77.06,817.2571217,1,TRUE,Positive,[1],75
7,1,5,9,con,6.3838739605,81.53,77.06,883.7991995,2,TRUE,Positive,[2],75
7,1,5,10,noc,7.9497126043,81.53,77.06,949.6737132,3,FALSE,Negative,[2],75
7,1,5,11,con,6.3841352467,81.53,77.06,884.0514235,3,TRUE,Positive,[3],75
7,1,5,12,con,6.4727754523,81.53,77.06,972.7380713,1,TRUE,Positive,[1],75
7,1,5,13,noc,7.9797892114,81.53,77.06,979.7691996,1,FALSE,Negative,[1],75
7,1,5,14,noc,4.8795844489,81.53,77.06,879.5648147,2,TRUE,Positive,[2],75
7,1,5,15,noc,4.8846878367,81.53,77.06,884.6047688,3,TRUE,Positive,[3],75
7,1,5,16,bas,5.0002454277,81.53,77.06,NA,3,FALSE,Negative,[],75
7,1,5,17,con,9.5005710917,81.53,77.06,NA,1,FALSE,Negative,[],75
7,1,5,18,con,5.8501980603,81.53,77.06,850.1497298,2,TRUE,Positive,[2],75
7,1,5,19,bas,4.6829088251,81.53,77.06,682.8778633,1,TRUE,Positive,[1],75
7,1,5,20,noc,7.8684035148,81.53,77.06,868.2996803,2,FALSE,Negative,[2],75
7,1,5,21,noc,7.9804390287,81.53,77.06,980.4190169,3,FALSE,Negative,[3],75
7,1,5,22,con,6.2343786163,81.53,77.06,984.2944159,1,TRUE,Positive,[1],75
7,1,5,23,bas,4.8833942432,81.53,77.06,883.3538424,1,TRUE,Positive,[1],75
7,1,5,24,bas,4.9180928227,81.53,77.06,918.0010702,3,TRUE,Positive,[3],75
7,1,5,25,noc,7.9806383913,81.53,77.06,980.6191348,2,FALSE,Negative,[2],75
7,1,5,26,noc,5.0008242596,81.53,77.06,NA,1,TRUE,Positive,[],75
7,1,5,27,con,7.150933173,81.53,77.06,900.8399104,3,TRUE,Positive,[3],75
7,1,5,28,noc,4.784168927,81.53,77.06,784.0733989,2,TRUE,Positive,[2],75
7,1,5,29,bas,4.8173862547,81.53,77.06,817.3069628,2,TRUE,Positive,[2],75
7,1,5,30,noc,7.9999157991,81.53,77.06,999.8825719,1,FALSE,Negative,[1],75
7,2,5,1,bas,5.001111221,77.57,76.89,NA,2,FALSE,Negative,[],0
7,2,5,2,con,6.2303350996,77.57,76.89,730.3135772,1,TRUE,Positive,[1],0
7,2,5,3,con,5.1503060106,77.57,76.89,650.2452199,3,TRUE,Positive,[3],0
7,2,5,4,con,5.8808584083,77.57,76.89,880.8361311,2,TRUE,Positive,[2],0
7,2,5,5,noc,8.0002265484,77.57,76.89,1000.1804838,2,FALSE,Negative,[2],0
7,2,5,6,noc,7.8178367093,77.57,76.89,817.757417,1,FALSE,Negative,[1],0
7,2,5,7,con,6.351014202,77.57,76.89,850.9122548,3,TRUE,Positive,[3],0
7,2,5,8,con,6.267633325,77.57,76.89,767.5536554,2,TRUE,Positive,[2],0
7,2,5,9,bas,4.8185956473,77.57,76.89,818.4823729,3,FALSE,Negative,[2],0
7,2,5,10,con,6.4005909902,77.57,76.89,900.5177394,2,TRUE,Positive,[2],0
7,2,5,11,noc,4.8193545854,77.57,76.89,819.2669866,3,TRUE,Positive,[3],0
7,2,5,12,noc,4.9343469371,77.57,76.89,934.2665123,1,TRUE,Positive,[1],0
7,2,5,13,bas,5.000377581,77.57,76.89,NA,3,FALSE,Negative,[],0
7,2,5,14,noc,7.9799183444,77.57,76.89,979.8987098,1,FALSE,Negative,[1],0
7,2,5,15,noc,4.9338723179,77.57,76.89,933.782076,2,TRUE,Positive,[2],0
7,2,5,16,bas,4.8836970637,77.57,76.89,883.6241905,2,TRUE,Positive,[2],0
7,2,5,17,bas,4.7344350647,77.57,76.89,734.3342504,1,TRUE,Positive,[1],0
7,2,5,18,noc,7.8672337686,77.57,76.89,867.1537214,3,FALSE,Negative,[3],0
7,2,5,19,con,6.367196199,77.57,76.89,867.1135087,1,TRUE,Positive,[1],0
7,2,5,20,noc,7.8973303875,77.57,76.89,897.3088656,2,FALSE,Negative,[2],0
7,2,5,21,con,9.5004227022,77.57,76.89,NA,3,FALSE,Negative,[],0
7,2,5,22,bas,4.8677212261,77.57,76.89,867.6302289,1,TRUE,Positive,[1],0
7,2,5,23,noc,4.8672862523,77.57,76.89,867.223951,3,TRUE,Positive,[3],0
7,2,5,24,con,5.9508899022,77.57,76.89,950.8057018,2,TRUE,Positive,[2],0
7,2,5,25,con,5.7008042857,77.57,76.89,700.7382088,1,TRUE,Positive,[1],0
7,2,5,26,noc,5.0165478736,77.57,76.89,NA,3,TRUE,Positive,[],0
7,2,5,27,con,6.1638305914,77.57,76.89,913.8083141,3,TRUE,Positive,[3],0
7,2,5,28,con,7.6014030161,77.57,76.89,851.2972933,1,TRUE,Positive,[1],0
7,2,5,29,noc,4.7366155963,77.57,76.89,736.5155374,1,TRUE,Positive,[1],0
7,2,5,30,noc,8.0168246403,77.57,76.89,NA,2,FALSE,Negative,[],0
7,3,5,1,noc,7.8692915859,85.79,77.01,869.1730252,3,FALSE,Negative,[3],0
7,3,5,2,con,6.267793797,85.79,77.01,767.7228115,3,TRUE,Positive,[3],0
7,3,5,3,con,8.5007387376,85.79,77.01,NA,1,FALSE,Negative,[],0
7,3,5,4,noc,4.8971989891,85.79,77.01,897.1774671,2,TRUE,Positive,[3],0
7,3,5,5,bas,5.0172165697,85.79,77.01,NA,3,FALSE,Negative,[],0
7,3,5,6,bas,4.8834988335,85.79,77.01,883.4659839,1,TRUE,Positive,[1],0
7,3,5,7,con,5.4693896817,85.79,77.01,969.279428,1,TRUE,Positive,[1],0
7,3,5,8,con,9.00061659,85.79,77.01,NA,3,FALSE,Negative,[],0
7,3,5,9,con,8.4671604424,85.79,77.01,967.08115,2,FALSE,Negative,[1],0
7,3,5,10,noc,7.8799412632,85.79,77.01,879.9208738,2,FALSE,Negative,[2],0
7,3,5,11,noc,4.901081657,85.79,77.01,901.0087838,1,TRUE,Positive,[1],0
7,3,5,12,con,5.3841295824,85.79,77.01,884.0457597,1,TRUE,Positive,[1],0
7,3,5,13,bas,5.0008065137,85.79,77.01,NA,3,FALSE,Negative,[],0
7,3,5,14,noc,4.9469819367,85.79,77.01,946.9611701,2,TRUE,Positive,[2],0
7,3,5,15,noc,8.0168733485,85.79,77.01,NA,3,FALSE,Negative,[],0
7,3,5,16,bas,5.0011157524,85.79,77.01,NA,2,FALSE,Negative,[],0
7,3,5,17,con,8.5175777259,85.79,77.01,NA,3,FALSE,Negative,[],0
7,3,5,18,bas,4.7743759812,85.79,77.01,774.2589307,2,TRUE,Positive,[2],0
7,3,5,19,noc,5.0010708203,85.79,77.01,1000.9968141,1,TRUE,Positive,[1],0
7,3,5,20,noc,7.7178045013,85.79,77.01,717.7274749,1,FALSE,Negative,[1],0
7,3,5,21,noc,8.0006230092,85.79,77.01,NA,3,FALSE,Negative,[],0
7,3,5,22,con,5.2834430267,85.79,77.01,783.3739296,1,TRUE,Positive,[1],0
7,3,5,23,con,5.8512949334,85.79,77.01,851.1933642,3,TRUE,Positive,[3],0
7,3,5,24,con,5.7673676969,85.79,77.01,767.294446,2,TRUE,Positive,[2],0
7,3,5,25,noc,7.8798891571,85.79,77.01,879.8510218,2,FALSE,Negative,[2],0
7,3,5,26,con,6.5167968879,85.79,77.01,766.6949411,2,TRUE,Positive,[2],0
7,3,5,27,noc,4.8996207952,85.79,77.01,899.5411256,1,TRUE,Positive,[1],0
7,3,5,28,con,10.7663391652,85.79,77.01,NA,2,FALSE,Negative,[],0
7,3,5,29,noc,5.0008586193,85.79,77.01,1000.7891445,3,TRUE,Positive,[3],0
7,3,5,30,bas,4.9006591435,85.79,77.01,900.5840048,1,TRUE,Positive,[1],0
7,4,5,1,bas,4.9360181116,79.59,76.84,935.90446,1,TRUE,Positive,[1],0
7,4,5,2,noc,7.6835601525,79.59,76.84,683.4944533,3,FALSE,Negative,[3],0
7,4,5,3,con,6.100766981,79.59,76.84,600.663146,2,TRUE,Positive,[2],0
7,4,5,4,noc,4.897682671,79.59,76.84,897.6615267,3,TRUE,Positive,[2],0
7,4,5,5,con,5.4181715478,79.59,76.84,918.0567632,1,TRUE,Positive,[1],0
7,4,5,6,con,5.88471389,79.59,76.84,884.6202497,1,TRUE,Positive,[1],0
7,4,5,7,noc,8.0004183599,79.59,76.84,NA,2,FALSE,Negative,[],0
7,4,5,8,noc,4.8002142394,79.59,76.84,800.1617556,3,TRUE,Positive,[3],0
7,4,5,9,noc,5.0641480242,79.59,76.84,1064.1280119,2,TRUE,Positive,[2],0
7,4,5,10,con,9.5169003452,79.59,76.84,NA,3,FALSE,Negative,[],0
7,4,5,11,con,5.9180282559,79.59,76.84,917.9206453,3,TRUE,Positive,[3],0
7,4,5,12,noc,7.9346928019,79.59,76.84,934.6040701,1,FALSE,Negative,[1],0
7,4,5,13,con,5.8825016418,79.59,76.84,882.4578421,2,TRUE,Positive,[2],0
7,4,5,14,noc,8.0162756373,79.59,76.84,NA,2,FALSE,Negative,[],0
7,4,5,15,con,5.7510916819,79.59,76.84,750.9927554,2,TRUE,Positive,[2],0
7,4,5,16,bas,4.9342015688,79.59,76.84,934.1162355,3,TRUE,Positive,[3],0
7,4,5,17,noc,7.9133824972,79.59,76.84,913.3628625,1,FALSE,Negative,[1],0
7,4,5,18,noc,8.0168556022,79.59,76.84,NA,2,FALSE,Negative,[],0
7,4,5,19,bas,4.9681593333,79.59,76.84,968.0585191,3,FALSE,Negative,[1],0
7,4,5,20,bas,4.8347651842,79.59,76.84,834.6692789,2,TRUE,Positive,[2],0
7,4,5,21,con,6.3834775002,79.59,76.84,883.4446506,1,TRUE,Positive,[1],0
7,4,5,22,bas,5.0006683189,79.59,76.84,NA,1,FALSE,Negative,[],0
7,4,5,23,noc,4.7504867967,79.59,76.84,750.4143012,1,TRUE,Positive,[1],0
7,4,5,24,noc,4.8642150066,79.59,76.84,864.1897086,1,TRUE,Positive,[1],0
7,4,5,25,noc,4.9002721226,79.59,76.84,900.1777275,3,TRUE,Positive,[3],0
7,4,5,26,bas,4.9184379312,79.59,76.84,918.3171056,2,TRUE,Positive,[2],0
7,4,5,27,con,6.4675973039,79.59,76.84,967.514236,1,TRUE,Positive,[1],0
7,4,5,28,con,6.3848130046,79.59,76.84,884.717477,2,TRUE,Positive,[2],0
7,4,5,29,con,9.7506782301,79.59,76.84,NA,3,FALSE,Negative,[],0
7,4,5,30,con,6.1338219489,79.59,76.84,883.7513411,3,TRUE,Positive,[3],0
8,1,6,1,con,9.200099606,78.97,75.67,700.0641133,3,FALSE,Negative,[1],0
8,1,6,2,bas,4.7333547044,78.97,75.67,733.3165687,2,TRUE,Positive,[2],0
8,1,6,3,con,4.7499282596,78.97,75.67,749.8897463,3,TRUE,Positive,[3],0
8,1,6,4,con,5.1667584189,78.97,75.67,666.7202832,2,TRUE,Positive,[2],0
8,1,6,5,noc,4.7828752517,78.97,75.67,782.8476882,1,TRUE,Positive,[1],0
8,1,6,6,noc,7.767009284,78.97,75.67,766.972281,3,FALSE,Negative,[3],0
8,1,6,7,con,5.618218828,78.97,75.67,618.1085743,2,TRUE,Positive,[2],0
8,1,6,8,con,9.1170992994,78.97,75.67,616.9965972,1,FALSE,Negative,[2],0
8,1,6,9,con,5.79999781,78.97,75.67,799.9604295,2,TRUE,Positive,[2],0
8,1,6,10,noc,7.8966065255,78.97,75.67,896.5857585,3,FALSE,Negative,[3],0
8,1,6,11,con,5.7000618478,78.97,75.67,700.0222018,3,TRUE,Positive,[3],0
8,1,6,12,con,5.499526513,78.97,75.67,499.4910203,1,TRUE,Positive,[1],0
8,1,6,13,noc,7.7496227963,78.97,75.67,749.5918346,1,FALSE,Negative,[1],0
8,1,6,14,noc,5.0470689116,78.97,75.67,NA,2,TRUE,Positive,[],0
8,1,6,15,noc,4.7998101521,78.97,75.67,799.7754146,3,TRUE,Positive,[3],0
8,1,6,16,bas,4.8168624804,78.97,75.67,816.8250998,3,TRUE,Positive,[3],0
8,1,6,17,con,9.5003590799,78.97,75.67,NA,1,FALSE,Negative,[],0
8,1,6,18,con,5.499691516,78.97,75.67,499.6560234,2,TRUE,Positive,[2],0
8,1,6,19,bas,4.816751849,78.97,75.67,816.7118254,1,TRUE,Positive,[1],0
8,1,6,20,noc,7.8799759556,78.97,75.67,879.9551887,2,FALSE,Negative,[2],0
8,1,6,21,noc,4.6999051516,78.97,75.67,699.8685262,3,TRUE,Positive,[3],0
8,1,6,22,con,6.0167721629,78.97,75.67,766.7347823,1,TRUE,Positive,[1],0
8,1,6,23,bas,4.7999993204,78.97,75.67,799.9630726,1,TRUE,Positive,[1],0
8,1,6,24,bas,4.8505676558,78.97,75.67,850.5298976,3,TRUE,Positive,[3],0
8,1,6,25,noc,7.8338661006,78.97,75.67,833.7649088,2,FALSE,Negative,[2],0
8,1,6,26,noc,4.7345346461,78.97,75.67,734.4561092,1,TRUE,Positive,[1],0
8,1,6,27,con,7.1004196439,78.97,75.67,850.380753,3,TRUE,Positive,[3],0
8,1,6,28,noc,7.7836062491,78.97,75.67,783.5688686,2,FALSE,Negative,[2],0
8,1,6,29,bas,4.8333880826,78.97,75.67,833.3488142,2,FALSE,Negative,[3],0
8,1,6,30,noc,4.7000746856,78.97,75.67,700.0380602,1,TRUE,Positive,[1],0
8,2,6,1,bas,4.7340422801,78.52,75.25,734.0056547,2,TRUE,Positive,[2],0
8,2,6,2,con,6.0675081444,78.52,75.25,567.4296075,1,TRUE,Positive,[1],0
8,2,6,3,con,5.0499343764,78.52,75.25,549.9034147,3,TRUE,Positive,[3],0
8,2,6,4,con,8.7508235049,78.52,75.25,750.7547851,2,FALSE,Negative,[1],0
8,2,6,5,noc,4.7998917097,78.52,75.25,799.8562171,2,TRUE,Positive,[2],0
8,2,6,6,noc,5.0163451184,78.52,75.25,NA,1,TRUE,Positive,[],0
8,2,6,7,con,5.8017845249,78.52,75.25,801.7108965,3,TRUE,Positive,[3],0
8,2,6,8,con,5.5496787538,78.52,75.25,549.6462818,2,TRUE,Positive,[2],0
8,2,6,9,bas,4.9666452201,78.52,75.25,966.6070843,3,TRUE,Positive,[3],0
8,2,6,10,con,5.767392529,78.52,75.25,767.3151248,2,TRUE,Positive,[2],0
8,2,6,11,noc,8.030699628,78.52,75.25,NA,3,FALSE,Negative,[],0
8,2,6,12,noc,4.6835815553,78.52,75.25,683.5449299,1,TRUE,Positive,[1],0
8,2,6,13,bas,4.7843980372,78.52,75.25,784.3070401,3,TRUE,Positive,[3],0
8,2,6,14,noc,7.6996793579,78.52,75.25,699.6431101,1,FALSE,Negative,[1],0
8,2,6,15,noc,4.6834233487,78.52,75.25,683.3867233,2,TRUE,Positive,[2],0
8,2,6,16,bas,4.8682244917,78.52,75.25,868.1176362,2,FALSE,Negative,[3],0
8,2,6,17,bas,4.5666329109,78.52,75.25,566.5943976,1,TRUE,Positive,[1],0
8,2,6,18,noc,4.6999980366,78.52,75.25,699.9663197,3,TRUE,Positive,[3],0
8,2,6,19,con,6.2976224459,78.52,75.25,797.5994134,1,TRUE,Positive,[1],0
8,2,6,20,noc,4.8003202645,78.52,75.25,800.2375742,2,TRUE,Positive,[2],0
8,2,6,21,con,6.0685770772,78.52,75.25,568.4653131,3,TRUE,Positive,[3],0
8,2,6,22,bas,5.017482771,78.52,75.25,1017.3993255,1,TRUE,Positive,[1],0
8,2,6,23,noc,7.4997976164,78.52,75.25,499.7651444,3,FALSE,Negative,[3],0
8,2,6,24,con,6.0641529567,78.52,75.25,564.1299242,2,TRUE,Positive,[2],0
8,2,6,25,con,6.2838218481,78.52,75.25,783.7508628,1,TRUE,Positive,[1],0
8,2,6,26,noc,7.8337596227,78.52,75.25,833.6943011,3,FALSE,Negative,[3],0
8,2,6,27,con,6.5011587971,78.52,75.25,751.121039,3,TRUE,Positive,[3],0
8,2,6,28,con,10.3175927227,78.52,75.25,567.5576076,1,FALSE,Negative,[2],0
8,2,6,29,noc,7.6844696266,78.52,75.25,684.3948655,1,FALSE,Negative,[1],0
8,2,6,30,noc,7.8166204507,78.52,75.25,816.5860908,2,FALSE,Negative,[2],0
8,3,6,1,noc,7.7658648349,75,75.64,765.8384042,3,FALSE,Negative,[3],0
8,3,6,2,con,6.3833696567,75,75.64,883.3334089,3,TRUE,Positive,[3],0
8,3,6,3,con,5.16734367,75,75.64,667.2658882,1,TRUE,Positive,[1],0
8,3,6,4,noc,7.9513180609,75,75.64,951.244055,2,FALSE,Negative,[2],0
8,3,6,5,bas,4.8176520029,75,75.64,817.6153775,3,TRUE,Positive,[3],0
8,3,6,6,bas,4.7177462472,75,75.64,717.6492088,1,TRUE,Positive,[1],0
8,3,6,7,con,5.6839946293,75,75.64,683.9123166,1,TRUE,Positive,[1],0
8,3,6,8,con,6.3180284515,75,75.64,817.9533128,3,TRUE,Positive,[3],0
8,3,6,9,con,6.200668621,75,75.64,700.587441,2,TRUE,Positive,[2],0
8,3,6,10,noc,7.8515588068,75,75.64,851.4674321,2,FALSE,Negative,[2],0
8,3,6,11,noc,4.6833523634,75,75.64,683.3214018,1,TRUE,Positive,[1],0
8,3,6,12,con,6.2808597225,75,75.64,780.8212092,1,TRUE,Positive,[1],0
8,3,6,13,bas,5.0208406018,75,75.64,NA,3,FALSE,Negative,[],0
8,3,6,14,noc,4.7842432288,75,75.64,784.1726211,2,TRUE,Positive,[2],0
8,3,6,15,noc,4.7502257936,75,75.64,750.1914337,3,TRUE,Positive,[3],0
8,3,6,16,bas,4.6831050476,75,75.64,683.0654016,2,TRUE,Positive,[2],0
8,3,6,17,con,6.1423908299,75,75.64,642.3602458,3,TRUE,Positive,[3],0
8,3,6,18,bas,4.8661561012,75,75.64,866.1179655,2,TRUE,Positive,[2],0
8,3,6,19,noc,4.8003229076,75,75.64,800.2874149,1,TRUE,Positive,[2],0
8,3,6,20,noc,4.6335440993,75,75.64,633.5104945,1,TRUE,Positive,[1],0
8,3,6,21,noc,7.850146275,75,75.64,850.1092721,3,FALSE,Negative,[3],0
8,3,6,22,con,6.2467056029,75,75.64,746.6821928,1,TRUE,Positive,[1],0
8,3,6,23,con,6.3830517332,75,75.64,883.0188836,3,TRUE,Positive,[3],0
8,3,6,24,con,6.263100562,75,75.64,763.0782847,2,TRUE,Positive,[2],0
8,3,6,25,noc,4.818193077,75,75.64,818.1575843,2,TRUE,Positive,[2],0
8,3,6,26,con,6.4848922156,75,75.64,734.7762982,2,TRUE,Positive,[2],0
8,3,6,27,noc,7.8169961441,75,75.64,816.9602739,1,FALSE,Negative,[1],0
8,3,6,28,con,7.4496147915,75,75.64,699.5759006,2,TRUE,Positive,[2],0
8,3,6,29,noc,7.9339957621,75,75.64,933.9610246,3,FALSE,Negative,[3],0
8,3,6,30,bas,5.0004379943,75,75.64,NA,1,FALSE,Negative,[],0
8,4,6,1,bas,4.8009855628,75.62,74.8,800.9496926,1,TRUE,Positive,[1],0
8,4,6,2,noc,7.9332738265,75.62,74.8,933.2394666,3,FALSE,Negative,[3],0
8,4,6,3,con,6.4002196013,75.62,74.8,900.1807104,2,TRUE,Positive,[2],0
8,4,6,4,noc,7.7997323704,75.62,74.8,799.6949898,3,FALSE,Negative,[3],0
8,4,6,5,con,5.2331628931,75.62,74.8,733.1232471,1,TRUE,Positive,[1],0
8,4,6,6,con,5.7167112968,75.62,74.8,716.6720283,1,TRUE,Positive,[1],0
8,4,6,7,noc,7.7503477524,75.62,74.8,750.3115046,2,FALSE,Negative,[2],0
8,4,6,8,noc,4.8177177021,75.62,74.8,817.6270825,3,TRUE,Positive,[1],0
8,4,6,9,noc,7.7330477308,75.62,74.8,733.011483,2,FALSE,Negative,[2],0
8,4,6,10,con,6.3131667142,75.62,74.8,813.144437,3,TRUE,Positive,[3],0
8,4,6,11,con,6.349902735,75.62,74.8,849.8642218,3,TRUE,Positive,[3],0
8,4,6,12,noc,4.552017115,75.62,74.8,551.9140353,1,TRUE,Positive,[1],0
8,4,6,13,con,6.3170811,75.62,74.8,816.9972769,2,TRUE,Positive,[2],0
8,4,6,14,noc,4.5846299476,75.62,74.8,584.5374402,2,TRUE,Positive,[3],0
8,4,6,15,con,6.3495130711,75.62,74.8,849.4745578,2,TRUE,Positive,[2],0
8,4,6,16,bas,4.7842228394,75.62,74.8,784.1088099,3,TRUE,Positive,[3],0
8,4,6,17,noc,7.6852145946,75.62,74.8,685.1432317,1,FALSE,Negative,[1],0
8,4,6,18,noc,5.0061236141,75.62,74.8,NA,2,TRUE,Positive,[],0
8,4,6,19,bas,5.0005002953,75.62,74.8,NA,3,FALSE,Negative,[],0
8,4,6,20,bas,4.6503223034,75.62,74.8,650.2845453,2,TRUE,Positive,[2],0
8,4,6,21,con,6.2666222631,75.62,74.8,766.5856377,1,TRUE,Positive,[1],0
8,4,6,22,bas,5.0167578148,75.62,74.8,NA,1,FALSE,Negative,[],0
8,4,6,23,noc,7.666967599,75.62,74.8,666.9177582,1,FALSE,Negative,[1],0
8,4,6,24,noc,4.7333849109,75.62,74.8,733.3547045,1,TRUE,Positive,[2],0
8,4,6,25,noc,4.5335012815,75.62,74.8,533.4642786,3,TRUE,Positive,[1],0
8,4,6,26,bas,4.7002585677,75.62,74.8,700.2226975,2,FALSE,Negative,[1],0
8,4,6,27,con,6.2672135555,75.62,74.8,767.1342634,1,TRUE,Positive,[1],0
8,4,6,28,con,6.1336626598,75.62,74.8,633.6241465,2,TRUE,Positive,[2],0
8,4,6,29,con,6.6020692968,75.62,74.8,851.9582879,3,TRUE,Positive,[3],0
8,4,6,30,con,7.6668203423,75.62,74.8,916.781829,3,TRUE,Positive,[3],0
9,1,4,1,con,6.3523122831,77.25,75.32,852.2024073,3,TRUE,Positive,[3],70
9,1,4,2,bas,4.784633462,77.25,75.32,784.5337808,2,TRUE,Positive,[2],70
9,1,4,3,con,5.297096445,77.25,75.32,797.0737902,3,TRUE,Positive,[3],70
9,1,4,4,con,5.7002608702,77.25,75.32,700.2238674,2,TRUE,Positive,[2],70
9,1,4,5,noc,7.8332552371,77.25,75.32,833.2189894,1,FALSE,Negative,[1],70
9,1,4,6,noc,4.7666123077,77.25,75.32,766.5768152,3,TRUE,Positive,[3],70
9,1,4,7,con,6.0667010768,77.25,75.32,566.6625637,2,TRUE,Positive,[2],70
9,1,4,8,con,6.4670245876,77.25,75.32,966.9653075,1,TRUE,Positive,[1],70
9,1,4,9,con,6.2522595351,77.25,75.32,752.1779778,2,TRUE,Positive,[2],70
9,1,4,10,noc,4.8010778408,77.25,75.32,801.0110091,3,TRUE,Positive,[3],70
9,1,4,11,con,9.5009180866,77.25,75.32,NA,3,FALSE,Negative,[],70
9,1,4,12,con,5.9802317814,77.25,75.32,980.2095042,1,TRUE,Positive,[1],70
9,1,4,13,noc,7.7857877251,77.25,75.32,785.7020143,1,FALSE,Negative,[1],70
9,1,4,14,noc,7.7502374037,77.25,75.32,750.2015335,2,FALSE,Negative,[2],70
9,1,4,15,noc,8.016130232,77.25,75.32,NA,3,FALSE,Negative,[],70
9,1,4,16,bas,5.000855597,77.25,75.32,1000.8182166,3,TRUE,Positive,[3],70
9,1,4,17,con,5.8963428701,77.25,75.32,896.3209704,1,TRUE,Positive,[1],70
9,1,4,18,con,5.799654363,77.25,75.32,799.6173601,2,TRUE,Positive,[2],70
9,1,4,19,bas,5.0004085419,77.25,75.32,NA,1,FALSE,Negative,[],70
9,1,4,20,noc,4.768277437,77.25,75.32,768.1728472,2,TRUE,Positive,[2],70
9,1,4,21,noc,4.7832043204,77.25,75.32,783.1684503,3,TRUE,Positive,[3],70
9,1,4,22,con,6.4353595679,77.25,75.32,685.3293614,1,TRUE,Positive,[1],70
9,1,4,23,bas,4.9009799343,77.25,75.32,900.9417986,1,TRUE,Positive,[1],70
9,1,4,24,bas,5.016588237,77.25,75.32,NA,3,FALSE,Negative,[],70
9,1,4,25,noc,4.5332869161,77.25,75.32,533.2518012,2,TRUE,Positive,[2],70
9,1,4,26,noc,7.7669037997,77.25,75.32,766.8671744,1,FALSE,Negative,[1],70
9,1,4,27,con,7.5016807988,77.25,75.32,751.5697902,3,TRUE,Positive,[3],70
9,1,4,28,noc,4.6165951089,77.25,75.32,616.5599939,2,TRUE,Positive,[2],70
9,1,4,29,bas,4.7661305151,77.25,75.32,766.0893589,2,TRUE,Positive,[2],70
9,1,4,30,noc,7.9003203014,77.25,75.32,900.2840537,1,FALSE,Negative,[1],70
9,2,4,1,bas,4.7017542005,77.2,75.77,701.674531,2,TRUE,Positive,[2],0
9,2,4,2,con,6.2832226331,77.2,75.77,783.1841198,1,TRUE,Positive,[1],0
9,2,4,3,con,5.2135405595,77.2,75.77,713.5182823,3,TRUE,Positive,[3],0
9,2,4,4,con,5.8993317961,77.2,75.77,899.3095189,2,TRUE,Positive,[2],0
9,2,4,5,noc,7.6835132944,77.2,75.77,683.4774243,2,FALSE,Negative,[2],0
9,2,4,6,noc,8.0161774295,77.2,75.77,NA,1,FALSE,Negative,[],0
9,2,4,7,con,6.1347961802,77.2,75.77,634.6440153,3,TRUE,Positive,[3],0
9,2,4,8,con,6.2177343443,77.2,75.77,717.6520318,2,TRUE,Positive,[2],0
9,2,4,9,bas,4.7674501584,77.2,75.77,767.3769079,3,TRUE,Positive,[3],0
9,2,4,10,con,6.2837044256,77.2,75.77,783.6662899,2,TRUE,Positive,[2],0
9,2,4,11,noc,7.8685525797,77.2,75.77,868.4495003,3,FALSE,Negative,[3],0
9,2,4,12,noc,4.8669520167,77.2,75.77,866.9161466,1,TRUE,Positive,[1],0
9,2,4,13,bas,4.934646885,77.2,75.77,934.566838,3,TRUE,Positive,[3],0
9,2,4,14,noc,4.9182878393,77.2,75.77,918.1840047,1,TRUE,Positive,[1],0
9,2,4,15,noc,4.9164252355,77.2,75.77,916.3893654,2,TRUE,Positive,[2],0
9,2,4,16,bas,4.6682209132,77.2,75.77,668.1306715,2,TRUE,Positive,[2],0
9,2,4,17,bas,4.9829616873,77.2,75.77,982.9231741,1,TRUE,Positive,[1],0
9,2,4,18,noc,4.9498645053,77.2,75.77,949.8297679,3,TRUE,Positive,[3],0
9,2,4,19,con,6.4173912748,77.2,75.77,917.302921,1,TRUE,Positive,[1],0
9,2,4,20,noc,4.7171530593,77.2,75.77,717.1194547,2,TRUE,Positive,[2],0
9,2,4,21,con,9.5012224164,77.2,75.77,NA,3,FALSE,Negative,[],0
9,2,4,22,bas,4.9167091759,77.2,75.77,916.6687748,1,FALSE,Negative,[2],0
9,2,4,23,noc,7.6003870954,77.2,75.77,600.3512252,3,FALSE,Negative,[3],0
9,2,4,24,con,5.8012892858,77.2,75.77,801.1846961,2,TRUE,Positive,[2],0
9,2,4,25,con,5.8665498937,77.2,75.77,866.513646,1,TRUE,Positive,[1],0
9,2,4,26,noc,4.5685355508,77.2,75.77,568.4313387,3,TRUE,Positive,[3],0
9,2,4,27,con,6.0165633166,77.2,75.77,766.5248035,3,TRUE,Positive,[3],0
9,2,4,28,con,7.5667737611,77.2,75.77,816.7371358,1,TRUE,Positive,[1],0
9,2,4,29,noc,7.913976627,77.2,75.77,913.9562377,1,FALSE,Negative,[1],0
9,2,4,30,noc,7.7501720822,77.2,75.77,750.1362121,2,FALSE,Negative,[2],0
9,3,4,1,noc,7.6016251813,76.48,75.89,601.5640132,3,FALSE,Negative,[3],0
9,3,4,2,con,6.1663943683,76.48,75.89,666.3645395,3,TRUE,Positive,[3],0
9,3,4,3,con,5.1676603952,76.48,75.89,667.5856343,1,TRUE,Positive,[1],0
9,3,4,4,noc,4.733037109,76.48,75.89,733.0087904,2,TRUE,Positive,[2],0
9,3,4,5,bas,5.0164572165,76.48,75.89,NA,3,FALSE,Negative,[],0
9,3,4,6,bas,4.7351553346,76.48,75.89,735.0556534,1,TRUE,Positive,[1],0
9,3,4,7,con,5.784668577,76.48,75.89,784.5598339,1,TRUE,Positive,[1],0
9,3,4,8,con,6.1842603371,76.48,75.89,684.1636766,3,TRUE,Positive,[3],0
9,3,4,9,con,6.134332134,76.48,75.89,634.2490664,2,TRUE,Positive,[2],0
9,3,4,10,noc,7.7017572211,76.48,75.89,701.6560296,2,FALSE,Negative,[2],0
9,3,4,11,noc,7.9184332078,76.48,75.89,918.3308835,1,FALSE,Negative,[1],0
9,3,4,12,con,6.433172245,76.48,75.89,933.1424161,1,TRUE,Positive,[1],0
9,3,4,13,bas,5.0169386315,76.48,75.89,NA,3,FALSE,Negative,[],0
9,3,4,14,noc,4.7169676675,76.48,75.89,716.9370834,2,TRUE,Positive,[2],0
9,3,4,15,noc,7.8332295617,76.48,75.89,833.2001104,3,FALSE,Negative,[3],0
9,3,4,16,bas,4.6667222969,76.48,75.89,666.6830285,2,TRUE,Positive,[2],0
9,3,4,17,con,6.2180401844,76.48,75.89,717.9420135,3,TRUE,Positive,[3],0
9,3,4,18,bas,4.7000362099,76.48,75.89,699.996564,2,TRUE,Positive,[2],0
9,3,4,19,noc,8.0162623851,76.48,75.89,NA,1,FALSE,Negative,[],0
9,3,4,20,noc,4.9180076747,76.48,75.89,917.9385775,1,TRUE,Positive,[1],0
9,3,4,21,noc,4.9013280633,76.48,75.89,901.2457508,3,TRUE,Positive,[3],0
9,3,4,22,con,6.3342899961,76.48,75.89,834.2597896,1,TRUE,Positive,[1],0
9,3,4,23,con,9.4004779411,76.48,75.89,900.366555,3,FALSE,Negative,[2],0
9,3,4,24,con,5.7672081295,76.48,75.89,767.1333686,2,TRUE,Positive,[2],0
9,3,4,25,noc,4.8178711039,76.48,75.89,817.7982309,2,TRUE,Positive,[2],0
9,3,4,26,con,5.9676353239,76.48,75.89,717.6017192,2,TRUE,Positive,[2],0
9,3,4,27,noc,4.7665133817,76.48,75.89,766.4846855,1,TRUE,Positive,[1],0
9,3,4,28,con,6.9174718882,76.48,75.89,667.3986376,2,TRUE,Positive,[2],0
9,3,4,29,noc,7.9662816983,76.48,75.89,966.2511143,3,FALSE,Negative,[3],0
9,3,4,30,bas,4.8666420233,76.48,75.89,866.5801001,1,TRUE,Positive,[1],0
9,4,4,1,bas,4.9668427827,78.49,75.47,966.806535,1,TRUE,Positive,[1],0
9,4,4,2,noc,7.8859069272,78.49,75.47,885.8234819,3,FALSE,Negative,[3],0
9,4,4,3,con,6.2504981229,78.49,75.47,750.465651,2,TRUE,Positive,[2],0
9,4,4,4,noc,4.9002149565,78.49,75.47,900.1817294,3,TRUE,Positive,[3],0
9,4,4,5,con,8.5162112229,78.49,75.47,NA,1,FALSE,Negative,[],0
9,4,4,6,con,5.2797945812,78.49,75.47,779.7726815,1,TRUE,Positive,[1],0
9,4,4,7,noc,4.5662598742,78.49,75.47,566.2228713,2,TRUE,Positive,[2],0
9,4,4,8,noc,7.7841543126,78.49,75.47,784.0712449,3,FALSE,Negative,[3],0
9,4,4,9,noc,7.5663935377,78.49,75.47,566.3591779,2,FALSE,Negative,[2],0
9,4,4,10,con,5.8488851752,78.49,75.47,848.8625204,3,TRUE,Positive,[3],0
9,4,4,11,con,5.6678542827,78.49,75.47,667.7546015,3,TRUE,Positive,[3],0
9,4,4,12,noc,4.8680281207,78.49,75.47,867.9367463,1,TRUE,Positive,[1],0
9,4,4,13,con,6.1973755902,78.49,75.47,697.3533129,2,TRUE,Positive,[2],0
9,4,4,14,noc,7.7496895346,78.49,75.47,749.6536644,2,FALSE,Negative,[2],0
9,4,4,15,con,6.2332132502,78.49,75.47,733.1743594,2,TRUE,Positive,[2],0
9,4,4,16,bas,4.9498346765,78.49,75.47,949.7991839,3,TRUE,Positive,[3],0
9,4,4,17,noc,7.9009497278,78.49,75.47,900.8674153,1,FALSE,Negative,[1],0
9,4,4,18,noc,4.7683801388,78.49,75.47,768.277437,2,TRUE,Positive,[2],0
9,4,4,19,bas,4.9514567616,78.49,75.47,951.3680302,3,TRUE,Positive,[3],0
9,4,4,20,bas,4.5519605292,78.49,75.47,551.8612256,2,TRUE,Positive,[2],0
9,4,4,21,con,6.2140525584,78.49,75.47,714.0299036,1,TRUE,Positive,[1],0
9,4,4,22,bas,4.9998908793,78.49,75.47,999.8534988,1,FALSE,Negative,[3],0
9,4,4,23,noc,4.6330345792,78.49,75.47,632.9990866,1,TRUE,Positive,[1],0
9,4,4,24,noc,4.8340632591,78.49,75.47,833.9854775,1,TRUE,Positive,[1],0
9,4,4,25,noc,8.0162344442,78.49,75.47,NA,3,FALSE,Negative,[],0
9,4,4,26,bas,4.6170176213,78.49,75.47,616.8624358,2,TRUE,Positive,[2],0
9,4,4,27,con,6.4330971065,78.49,75.47,933.0593485,1,TRUE,Positive,[1],0
9,4,4,28,con,6.1335112744,78.49,75.47,633.4829558,2,TRUE,Positive,[2],0
9,4,4,29,con,9.6003969124,78.49,75.47,850.3572665,3,FALSE,Negative,[1],0
9,4,4,30,con,6.1181917074,78.49,75.47,868.1063742,3,TRUE,Positive,[3],0
10,1,5,1,con,6.2338798561,78.79,74.55,733.80434,3,TRUE,Positive,[3],60
10,1,5,2,bas,4.783011213,78.79,74.55,782.9768532,2,TRUE,Positive,[2],60
10,1,5,3,con,5.4679530335,78.79,74.55,967.8420248,3,TRUE,Positive,[3],60
10,1,5,4,con,5.8352015393,78.79,74.55,835.0988374,2,TRUE,Positive,[2],60
10,1,5,5,noc,5.0165965562,78.79,74.55,NA,1,TRUE,Positive,[],60
10,1,5,6,noc,4.7006956168,78.79,74.55,700.6174576,3,TRUE,Positive,[3],60
10,1,5,7,con,6.3161882783,78.79,74.55,816.1490099,2,TRUE,Positive,[2],60
10,1,5,8,con,9.5172174876,78.79,74.55,NA,1,FALSE,Negative,[],60
10,1,5,9,con,5.7164660266,78.79,74.55,716.4271358,2,TRUE,Positive,[2],60
10,1,5,10,noc,7.6998366209,78.79,74.55,699.8007507,3,FALSE,Negative,[3],60
10,1,5,11,con,5.8344297645,78.79,74.55,834.3417882,3,TRUE,Positive,[3],60
10,1,5,12,con,9.0164798838,78.79,74.55,NA,1,FALSE,Negative,[],60
10,1,5,13,noc,4.8505898376,78.79,74.55,850.5120559,1,TRUE,Positive,[1],60
10,1,5,14,noc,7.5015588416,78.79,74.55,501.4644465,2,FALSE,Negative,[2],60
10,1,5,15,noc,7.5999151954,78.79,74.55,599.8800804,3,FALSE,Negative,[3],60
10,1,5,16,bas,4.7829730774,78.79,74.55,782.9334314,3,TRUE,Positive,[3],60
10,1,5,17,con,5.883745192,78.79,74.55,883.6753396,1,TRUE,Positive,[1],60
10,1,5,18,con,5.7841129933,78.79,74.55,784.0269049,2,TRUE,Positive,[2],60
10,1,5,19,bas,5.0165999545,78.79,74.55,NA,1,FALSE,Negative,[],60
10,1,5,20,noc,7.6513688619,78.79,74.55,651.2763547,2,FALSE,Negative,[2],60
10,1,5,21,noc,7.4665963863,78.79,74.55,466.559761,3,FALSE,Negative,[3],60
10,1,5,22,con,5.8162836174,78.79,74.55,566.2500128,1,TRUE,Positive,[1],60
10,1,5,23,bas,4.7499098526,78.79,74.55,749.8252746,1,FALSE,Negative,[2],60
10,1,5,24,bas,4.8498312781,78.79,74.55,849.7667118,3,TRUE,Positive,[3],60
10,1,5,25,noc,4.549822707,78.79,74.55,549.7894799,2,TRUE,Positive,[2],60
10,1,5,26,noc,7.8837433041,78.79,74.55,883.7074339,1,FALSE,Negative,[1],60
10,1,5,27,con,7.3659148911,78.79,74.55,615.8744899,3,TRUE,Positive,[3],60
10,1,5,28,noc,4.7844603674,78.79,74.55,784.3803203,2,TRUE,Positive,[2],60
10,1,5,29,bas,4.7849644376,78.79,74.55,784.8855232,2,TRUE,Positive,[2],60
10,1,5,30,noc,4.8465837072,78.79,74.55,846.5580317,1,TRUE,Positive,[1],60
10,2,5,1,bas,5.0004666896,75.67,74.74,NA,2,FALSE,Negative,[],0
10,2,5,2,con,6.263756678,75.67,74.74,763.7340231,1,TRUE,Positive,[1],0
10,2,5,3,con,5.2842124858,75.67,74.74,784.1347042,3,TRUE,Positive,[3],0
10,2,5,4,con,5.6859967807,75.67,74.74,685.9027632,2,TRUE,Positive,[2],0
10,2,5,5,noc,4.683220808,75.67,74.74,683.1845603,2,TRUE,Positive,[2],0
10,2,5,6,noc,4.8178097983,75.67,74.74,817.7376804,1,TRUE,Positive,[1],0
10,2,5,7,con,6.0168906915,75.67,74.74,516.8132875,3,TRUE,Positive,[3],0
10,2,5,8,con,6.2140021243,75.67,74.74,713.9794694,2,TRUE,Positive,[2],0
10,2,5,9,bas,4.7832041567,75.67,74.74,783.1645107,3,TRUE,Positive,[3],0
10,2,5,10,con,5.9995589858,75.67,74.74,499.5268915,2,TRUE,Positive,[2],0
10,2,5,11,noc,7.8343036526,75.67,74.74,834.2270037,3,FALSE,Negative,[3],0
10,2,5,12,noc,7.5667417171,75.67,74.74,566.7050918,1,FALSE,Negative,[1],0
10,2,5,13,bas,4.7172461082,75.67,74.74,717.167949,3,TRUE,Positive,[3],0
10,2,5,14,noc,4.7171509579,75.67,74.74,717.0773297,1,TRUE,Positive,[1],0
10,2,5,15,noc,4.5345178541,75.67,74.74,534.4404501,2,TRUE,Positive,[2],0
10,2,5,16,bas,4.884258324,75.67,74.74,884.1790321,2,TRUE,Positive,[2],0
10,2,5,17,bas,4.8508409287,75.67,74.74,850.7654126,1,TRUE,Positive,[1],0
10,2,5,18,noc,7.6500099493,75.67,74.74,649.9729464,3,FALSE,Negative,[3],0
10,2,5,19,con,6.0504976324,75.67,74.74,550.4119216,1,TRUE,Positive,[1],0
10,2,5,20,noc,4.5336211001,75.67,74.74,533.5871179,2,TRUE,Positive,[2],0
10,2,5,21,con,9.4497989572,75.67,74.74,949.7615767,3,FALSE,Negative,[1],0
10,2,5,22,bas,4.9508031329,75.67,74.74,950.726484,1,TRUE,Positive,[1],0
10,2,5,23,noc,7.7667004853,75.67,74.74,766.66386,3,FALSE,Negative,[3],0
10,2,5,24,con,5.6842602875,75.67,74.74,684.1764646,2,TRUE,Positive,[2],0
10,2,5,25,con,5.4998986196,75.67,74.74,499.8601064,1,TRUE,Positive,[1],0
10,2,5,26,noc,4.6512839063,75.67,74.74,651.2046143,3,TRUE,Positive,[3],0
10,2,5,27,con,6.0825187346,75.67,74.74,832.4873954,3,TRUE,Positive,[3],0
10,2,5,28,con,7.4344582341,75.67,74.74,684.3766767,1,TRUE,Positive,[1],0
10,2,5,29,noc,7.9675439249,75.67,74.74,967.4668984,1,FALSE,Negative,[1],0
10,2,5,30,noc,8.0174381834,75.67,74.74,NA,2,FALSE,Negative,[],0
10,3,5,1,noc,4.8170436872,78.6,75.97,817.0066843,3,TRUE,Positive,[3],0
10,3,5,2,con,6.2839081558,78.6,75.97,783.8262208,3,TRUE,Positive,[3],0
10,3,5,3,con,5.4493145212,78.6,75.97,949.2771408,1,TRUE,Positive,[1],0
10,3,5,4,noc,4.5499639222,78.6,75.97,549.9272968,2,TRUE,Positive,[2],0
10,3,5,5,bas,4.5657135651,78.6,75.97,565.6818483,3,TRUE,Positive,[3],0
10,3,5,6,bas,4.9013597056,78.6,75.97,901.2562485,1,TRUE,Positive,[1],0
10,3,5,7,con,5.7846087566,78.6,75.97,784.5230458,1,TRUE,Positive,[1],0
10,3,5,8,con,6.0303533286,78.6,75.97,530.2914054,3,TRUE,Positive,[3],0
10,3,5,9,con,6.4012704077,78.6,75.97,901.1896055,2,TRUE,Positive,[2],0
10,3,5,10,noc,4.9640097703,78.6,75.97,963.9878706,2,TRUE,Positive,[2],0
10,3,5,11,noc,7.8335462259,78.6,75.97,833.509223,1,FALSE,Negative,[1],0
10,3,5,12,con,9.1801784522,78.6,75.97,680.1565525,1,FALSE,Negative,[3],0
10,3,5,13,bas,4.7340718559,78.6,75.97,733.9936967,3,FALSE,Negative,[1],0
10,3,5,14,noc,7.7010607373,78.6,75.97,700.9769143,2,FALSE,Negative,[2],0
10,3,5,15,noc,7.6995051051,78.6,75.97,699.4692349,3,FALSE,Negative,[3],0
10,3,5,16,bas,4.6669957911,78.6,75.97,666.9221629,2,TRUE,Positive,[2],0
10,3,5,17,con,5.8500819916,78.6,75.97,850.043856,3,TRUE,Positive,[3],0
10,3,5,18,bas,4.817405787,78.6,75.97,817.3079937,2,TRUE,Positive,[2],0
10,3,5,19,noc,4.867435597,78.6,75.97,867.3604585,1,TRUE,Positive,[1],0
10,3,5,20,noc,7.8508518785,78.6,75.97,850.7876898,1,FALSE,Negative,[1],0
10,3,5,21,noc,5.0310057879,78.6,75.97,1030.9827555,3,TRUE,Positive,[3],0
10,3,5,22,con,9.0001680234,78.6,75.97,NA,1,FALSE,Negative,[],0
10,3,5,23,con,5.3007882751,78.6,75.97,800.7101159,3,TRUE,Positive,[3],0
10,3,5,24,con,5.7170618488,78.6,75.97,716.9852,2,TRUE,Positive,[2],0
10,3,5,25,noc,7.9673872289,78.6,75.97,967.2864149,2,FALSE,Negative,[2],0
10,3,5,26,con,6.0678791787,78.6,75.97,817.7779871,2,TRUE,Positive,[2],0
10,3,5,27,noc,7.8503870768,78.6,75.97,850.3138261,1,FALSE,Negative,[1],0
10,3,5,28,con,7.5336014659,78.6,75.97,783.5134896,2,TRUE,Positive,[2],0
10,3,5,29,noc,4.8340401013,78.6,75.97,833.9589215,3,TRUE,Positive,[3],0
10,3,5,30,bas,4.8008500095,78.6,75.97,800.7639211,1,TRUE,Positive,[1],0
10,4,5,1,bas,4.9338214444,78.12,76.72,933.7889725,1,TRUE,Positive,[1],0
10,4,5,2,noc,5.0008038691,78.12,76.72,NA,3,TRUE,Positive,[],0
10,4,5,3,con,6.0499512732,78.12,76.72,549.9180461,2,TRUE,Positive,[2],0
10,4,5,4,noc,7.6161156696,78.12,76.72,616.0809321,3,FALSE,Negative,[3],0
10,4,5,5,con,5.3324884338,78.12,76.72,832.4502981,1,TRUE,Positive,[1],0
10,4,5,6,con,5.7495337823,78.12,76.72,749.4948915,1,TRUE,Positive,[1],0
10,4,5,7,noc,4.7493600952,78.12,76.72,749.3238475,2,TRUE,Positive,[2],0
10,4,5,8,noc,7.9297715146,78.12,76.72,929.749615,3,FALSE,Negative,[3],0
10,4,5,9,noc,7.7834439204,78.12,76.72,783.4084278,2,FALSE,Negative,[2],0
10,4,5,10,con,6.3329290703,78.12,76.72,832.8992415,3,TRUE,Positive,[3],0
10,4,5,11,con,6.2499727198,78.12,76.72,749.9360945,3,TRUE,Positive,[3],0
10,4,5,12,noc,4.9132406574,78.12,76.72,913.2202681,1,TRUE,Positive,[1],0
10,4,5,13,con,6.2996494919,78.12,76.72,799.6098459,2,TRUE,Positive,[2],0
10,4,5,14,noc,8.0807138992,78.12,76.72,1080.6927547,2,FALSE,Negative,[2],0
10,4,5,15,con,6.1850654781,78.12,76.72,685.0292304,2,TRUE,Positive,[2],0
10,4,5,16,bas,4.7025737028,78.12,76.72,702.483461,3,FALSE,Negative,[1],0
10,4,5,17,noc,4.9998618055,78.12,76.72,999.8274457,1,TRUE,Positive,[1],0
10,4,5,18,noc,8.0006162116,78.12,76.72,NA,2,FALSE,Negative,[],0
10,4,5,19,bas,4.6675523449,78.12,76.72,667.4632359,3,TRUE,Positive,[3],0
10,4,5,20,bas,4.6001738381,78.12,76.72,600.1436317,2,TRUE,Positive,[2],0
10,4,5,21,con,6.1328592935,78.12,76.72,632.8204027,1,TRUE,Positive,[1],0
10,4,5,22,bas,4.7827080158,78.12,76.72,782.6721456,1,TRUE,Positive,[1],0
10,4,5,23,noc,7.8973112861,78.12,76.72,897.2856106,1,FALSE,Negative,[1],0
10,4,5,24,noc,4.8663591146,78.12,76.72,866.3221117,1,TRUE,Positive,[1],0
10,4,5,25,noc,4.8799720288,78.12,76.72,879.9516395,3,TRUE,Positive,[3],0
10,4,5,26,bas,4.5496724299,78.12,76.72,549.6331615,2,TRUE,Positive,[2],0
10,4,5,27,con,6.2849634936,78.12,76.72,784.8721191,1,TRUE,Positive,[1],0
10,4,5,28,con,6.366293982,78.12,76.72,866.2641531,2,TRUE,Positive,[2],0
10,4,5,29,con,6.4671529402,78.12,76.72,717.0830877,3,TRUE,Positive,[3],0
10,4,5,30,con,10.668030362,78.12,76.72,917.9442736,3,FALSE,Negative,[2],0
11,1,4,1,con,9.5098901506,78.76,75.87,NA,3,FALSE,Negative,[],65
11,1,4,2,bas,4.5831584822,78.76,75.87,583.1188362,2,TRUE,Positive,[2],65
11,1,4,3,con,5.0003889077,78.76,75.87,1000.3243415,3,TRUE,Positive,[3],65
11,1,4,4,con,5.2305818928,78.76,75.87,730.559238,2,TRUE,Positive,[2],65
11,1,4,5,noc,7.5503543025,78.76,75.87,550.2874708,1,FALSE,Negative,[1],65
11,1,4,6,noc,4.7505787363,78.76,75.87,750.5145476,3,TRUE,Positive,[3],65
11,1,4,7,con,8.5497622565,78.76,75.87,549.722233,2,FALSE,Negative,[1],65
11,1,4,8,con,5.8340745865,78.76,75.87,833.9952946,1,TRUE,Positive,[1],65
11,1,4,9,con,5.5505774525,78.76,75.87,550.5449806,2,TRUE,Positive,[2],65
11,1,4,10,noc,4.9965104025,78.76,75.87,996.4896356,3,TRUE,Positive,[3],65
11,1,4,11,con,5.8673877444,78.76,75.87,867.3545174,3,TRUE,Positive,[3],65
11,1,4,12,con,6.3343217128,78.76,75.87,834.233359,1,TRUE,Positive,[1],65
11,1,4,13,noc,4.8168535249,78.76,75.87,816.8002861,1,TRUE,Positive,[1],65
11,1,4,14,noc,7.9006914629,78.76,75.87,900.6197226,2,FALSE,Negative,[2],65
11,1,4,15,noc,4.9647906336,78.76,75.87,964.7698667,3,TRUE,Positive,[3],65
11,1,4,16,bas,4.7672575925,78.76,75.87,767.1850971,3,TRUE,Positive,[3],65
11,1,4,17,con,6.3344176182,78.76,75.87,834.341347,1,TRUE,Positive,[1],65
11,1,4,18,con,6.4172466615,78.76,75.87,917.1741661,2,TRUE,Positive,[2],65
11,1,4,19,bas,4.6667441965,78.76,75.87,666.7121022,1,TRUE,Positive,[1],65
11,1,4,20,noc,7.9339744144,78.76,75.87,933.9049396,2,FALSE,Negative,[2],65
11,1,4,21,noc,7.7335034207,78.76,75.87,733.4430078,3,FALSE,Negative,[3],65
11,1,4,22,con,6.6840011282,78.76,75.87,933.9346741,1,TRUE,Positive,[1],65
11,1,4,23,bas,4.8340776071,78.76,75.87,834.013796,1,TRUE,Positive,[1],65
11,1,4,24,bas,4.8004752226,78.76,75.87,800.4057478,3,TRUE,Positive,[3],65
11,1,4,25,noc,4.8008471392,78.76,75.87,800.7742662,2,TRUE,Positive,[2],65
11,1,4,26,noc,7.8173489103,78.76,75.87,817.2820786,1,FALSE,Negative,[1],65
11,1,4,27,con,7.450484681,78.76,75.87,700.4091649,3,TRUE,Positive,[3],65
11,1,4,28,noc,4.8671166417,78.76,75.87,867.0445239,2,TRUE,Positive,[2],65
11,1,4,29,bas,4.8000466689,78.76,75.87,799.9805924,2,TRUE,Positive,[2],65
11,1,4,30,noc,7.7326179948,78.76,75.87,732.588166,1,FALSE,Negative,[1],65
11,2,4,1,bas,4.8339016547,78.62,76.06,833.8631415,2,TRUE,Positive,[2],0
11,2,4,2,con,6.4343665316,78.62,76.06,934.2902604,1,TRUE,Positive,[1],0
11,2,4,3,con,8.367074164,78.62,76.06,867.0356508,3,FALSE,Negative,[2],0
11,2,4,4,con,5.2333691909,78.62,76.06,733.3306777,2,TRUE,Positive,[2],0
11,2,4,5,noc,7.6668132937,78.62,76.06,666.7747805,2,FALSE,Negative,[2],0
11,2,4,6,noc,4.8634948911,78.62,76.06,863.4741242,1,TRUE,Positive,[1],0
11,2,4,7,con,9.0009669832,78.62,76.06,NA,3,FALSE,Negative,[],0
11,2,4,8,con,5.0339610858,78.62,76.06,533.9233278,2,TRUE,Positive,[2],0
11,2,4,9,bas,4.8998415295,78.62,76.06,899.8033939,3,TRUE,Positive,[3],0
11,2,4,10,con,5.7332965067,78.62,76.06,733.2583711,2,TRUE,Positive,[2],0
11,2,4,11,noc,7.8330249131,78.62,76.06,832.9897982,3,FALSE,Negative,[2],0
11,2,4,12,noc,7.9134861502,78.62,76.06,913.4657608,1,FALSE,Negative,[1],0
11,2,4,13,bas,5.0168819944,78.62,76.06,NA,3,FALSE,Negative,[],0
11,2,4,14,noc,4.7336076329,78.62,76.06,733.5717627,1,TRUE,Positive,[1],0
11,2,4,15,noc,4.7165209899,78.62,76.06,716.4854973,2,TRUE,Positive,[2],0
11,2,4,16,bas,4.7999194244,78.62,76.06,799.8816663,2,TRUE,Positive,[2],0
11,2,4,17,bas,4.7169117855,78.62,76.06,716.8736499,1,TRUE,Positive,[1],0
11,2,4,18,noc,7.9677670994,78.62,76.06,967.6753474,3,FALSE,Negative,[3],0
11,2,4,19,con,5.8641484827,78.62,76.06,864.1129902,1,TRUE,Positive,[1],0
11,2,4,20,noc,7.7501014747,78.62,76.06,750.0644718,2,FALSE,Negative,[2],0
11,2,4,21,con,6.4848660137,78.62,76.06,984.7500966,3,TRUE,Positive,[3],0
11,2,4,22,bas,4.9171241367,78.62,76.06,917.0856235,1,TRUE,Positive,[1],0
11,2,4,23,noc,5.0011115965,78.62,76.06,1001.0281513,3,TRUE,Positive,[3],0
11,2,4,24,con,6.1359931099,78.62,76.06,635.8964493,2,TRUE,Positive,[2],0
11,2,4,25,con,6.2663783967,78.62,76.06,766.340261,1,TRUE,Positive,[1],0
11,2,4,26,noc,5.0169337229,78.62,76.06,1016.8970977,3,TRUE,Positive,[3],0
11,2,4,27,con,6.4999367553,78.62,76.06,749.8986197,3,TRUE,Positive,[3],0
11,2,4,28,con,7.5680360121,78.62,76.06,817.9378412,1,TRUE,Positive,[1],0
11,2,4,29,noc,7.7334747246,78.62,76.06,733.4373441,1,FALSE,Negative,[1],0
11,2,4,30,noc,4.8680337844,78.62,76.06,867.9393893,2,TRUE,Positive,[2],0
11,3,4,1,noc,7.8350989619,75.6,75.8,834.9966376,3,FALSE,Negative,[2],0
11,3,4,2,con,6.4011640047,75.6,75.8,901.085468,3,TRUE,Positive,[3],0
11,3,4,3,con,5.3164315789,75.6,75.8,816.4021276,1,TRUE,Positive,[1],0
11,3,4,4,noc,7.7501320587,75.6,75.8,750.0961886,2,FALSE,Negative,[2],0
11,3,4,5,bas,4.6178837906,75.6,75.8,617.7995902,3,TRUE,Positive,[3],0
11,3,4,6,bas,4.951313281,75.6,75.8,951.2354995,1,TRUE,Positive,[1],0
11,3,4,7,con,5.6997568005,75.6,75.8,699.7186649,1,TRUE,Positive,[1],0
11,3,4,8,con,6.116434826,75.6,75.8,616.397068,3,TRUE,Positive,[3],0
11,3,4,9,con,6.284141286,75.6,75.8,784.0593511,2,TRUE,Positive,[2],0
11,3,4,10,noc,8.0163884969,75.6,75.8,NA,2,FALSE,Negative,[],0
11,3,4,11,noc,7.8499242763,75.6,75.8,849.8884061,1,FALSE,Negative,[1],0
11,3,4,12,con,6.2999890879,75.6,75.8,799.9588815,1,TRUE,Positive,[1],0
11,3,4,13,bas,5.0010036085,75.6,75.8,NA,3,FALSE,Negative,[],0
11,3,4,14,noc,4.8465724956,75.6,75.8,846.5079294,2,TRUE,Positive,[2],0
11,3,4,15,noc,4.6173128891,75.6,75.8,617.2351076,3,TRUE,Positive,[3],0
11,3,4,16,bas,4.6342575619,75.6,75.8,634.1635444,2,TRUE,Positive,[2],0
11,3,4,17,con,6.4345383306,75.6,75.8,934.4412925,3,TRUE,Positive,[3],0
11,3,4,18,bas,4.7844329668,75.6,75.8,784.3340408,2,TRUE,Positive,[2],0
11,3,4,19,noc,4.5500949048,75.6,75.8,550.0601674,1,TRUE,Positive,[1],0
11,3,4,20,noc,4.7180252699,75.6,75.8,717.9425798,1,TRUE,Positive,[1],0
11,3,4,21,noc,8.0002167311,75.6,75.8,NA,3,FALSE,Negative,[],0
11,3,4,22,con,6.3334574314,75.6,75.8,833.4249595,1,TRUE,Positive,[1],0
11,3,4,23,con,6.450583607,75.6,75.8,950.5092237,3,TRUE,Positive,[3],0
11,3,4,24,con,6.3678459382,75.6,75.8,867.7730652,2,TRUE,Positive,[2],0
11,3,4,25,noc,4.7835981367,75.6,75.8,783.538479,2,TRUE,Positive,[2],0
11,3,4,26,con,6.3498315803,75.6,75.8,599.7938223,2,TRUE,Positive,[2],0
11,3,4,27,noc,4.8803285553,75.6,75.8,880.3017471,1,TRUE,Positive,[1],0
11,3,4,28,con,7.5498634481,75.6,75.8,799.8294658,2,TRUE,Positive,[2],0
11,3,4,29,noc,7.9508435711,75.6,75.8,950.7801376,3,FALSE,Negative,[2],0
11,3,4,30,bas,4.7824850299,75.6,75.8,782.4457615,1,TRUE,Positive,[1],0
11,4,4,1,bas,4.6182005805,81.02,76.64,618.1639552,1,TRUE,Positive,[1],0
11,4,4,2,noc,8.0006860635,81.02,76.64,NA,3,FALSE,Negative,[],0
11,4,4,3,con,9.516218397,81.02,76.64,NA,2,FALSE,Negative,[],0
11,4,4,4,noc,4.9019854307,81.02,76.64,901.8925459,3,TRUE,Positive,[3],0
11,4,4,5,con,4.9001651159,81.02,76.64,900.1303785,1,TRUE,Positive,[1],0
11,4,4,6,con,5.3683813471,81.02,76.64,868.2801555,1,TRUE,Positive,[1],0
11,4,4,7,noc,4.9340657888,81.02,76.64,934.0004674,2,TRUE,Positive,[2],0
11,4,4,8,noc,4.8498657513,81.02,76.64,849.8332794,3,TRUE,Positive,[3],0
11,4,4,9,noc,7.8838283474,81.02,76.64,883.7354627,2,FALSE,Negative,[2],0
11,4,4,10,con,5.8173492879,81.02,76.64,817.2624444,3,TRUE,Positive,[3],0
11,4,4,11,con,6.4163823801,81.02,76.64,916.3449997,3,TRUE,Positive,[3],0
11,4,4,12,noc,7.7999500084,81.02,76.64,799.9156486,1,FALSE,Negative,[1],0
11,4,4,13,con,9.5175195388,81.02,76.64,NA,2,FALSE,Negative,[],0
11,4,4,14,noc,7.7835875645,81.02,76.64,783.5577356,2,FALSE,Negative,[2],0
11,4,4,15,con,5.7848611429,81.02,76.64,784.7618393,2,TRUE,Positive,[2],0
11,4,4,16,bas,4.8997422259,81.02,76.64,899.7044679,3,TRUE,Positive,[3],0
11,4,4,17,noc,8.0167570153,81.02,76.64,NA,1,FALSE,Negative,[],0
11,4,4,18,noc,4.8836002889,81.02,76.64,883.5644188,2,TRUE,Positive,[2],0
11,4,4,19,bas,4.9669477501,81.02,76.64,966.9160333,3,TRUE,Positive,[3],0
11,4,4,20,bas,4.8178533576,81.02,76.64,817.7555643,2,TRUE,Positive,[2],0
11,4,4,21,con,5.867846127,81.02,76.64,867.7415372,1,TRUE,Positive,[1],0
11,4,4,22,bas,4.783315329,81.02,76.64,783.277571,1,TRUE,Positive,[1],0
11,4,4,23,noc,4.7332406248,81.02,76.64,733.206265,1,TRUE,Positive,[1],0
11,4,4,24,noc,4.8325151797,81.02,76.64,832.4872387,1,TRUE,Positive,[1],0
11,4,4,25,noc,8.0178142403,81.02,76.64,NA,3,FALSE,Negative,[],0
11,4,4,26,bas,4.833193314,81.02,76.64,833.1498922,2,TRUE,Positive,[2],0
11,4,4,27,con,5.8970991635,81.02,76.64,897.0765087,1,TRUE,Positive,[1],0
11,4,4,28,con,6.3021790539,81.02,76.64,802.0680453,2,TRUE,Positive,[2],0
11,4,4,29,con,9.7664110574,81.02,76.64,NA,3,FALSE,Negative,[],0
11,4,4,30,con,5.8682373002,81.02,76.64,618.2010525,3,TRUE,Positive,[3],0
12,1,2,1,con,9.5165431537,82.04,74.89,NA,3,FALSE,Negative,[],40
12,1,2,2,bas,4.7999578621,82.04,74.89,799.9208588,2,TRUE,Positive,[2],40
12,1,2,3,con,4.6848046603,82.04,74.89,684.692896,3,TRUE,Positive,[3],40
12,1,2,4,con,8.5013187015,82.04,74.89,NA,2,FALSE,Negative,[],40
12,1,2,5,noc,4.6168672312,82.04,74.89,616.7981336,1,TRUE,Positive,[1],40
12,1,2,6,noc,4.650183863,82.04,74.89,650.1468597,3,TRUE,Positive,[3],40
12,1,2,7,con,5.2465548553,82.04,74.89,746.5337105,2,TRUE,Positive,[2],40
12,1,2,8,con,5.8997820225,82.04,74.89,899.7435085,1,TRUE,Positive,[1],40
12,1,2,9,con,5.667077601,82.04,74.89,667.0356886,2,TRUE,Positive,[2],40
12,1,2,10,noc,5.0008404953,82.04,74.89,NA,3,TRUE,Positive,[],40
12,1,2,11,con,6.3312387643,82.04,74.89,831.2164871,3,TRUE,Positive,[3],40
12,1,2,12,con,9.5163366161,82.04,74.89,NA,1,FALSE,Negative,[],40
12,1,2,13,noc,4.9019319694,82.04,74.89,901.8277572,1,TRUE,Positive,[1],40
12,1,2,14,noc,7.7162073329,82.04,74.89,716.1722183,2,FALSE,Negative,[2],40
12,1,2,15,noc,7.7667318499,82.04,74.89,766.6944694,3,FALSE,Negative,[3],40
12,1,2,16,bas,4.8337204168,82.04,74.89,833.6819038,3,TRUE,Positive,[3],40
12,1,2,17,con,5.6506841583,82.04,74.89,650.6479103,1,TRUE,Positive,[1],40
12,1,2,18,con,5.8192111049,82.04,74.89,819.1748569,2,TRUE,Positive,[2],40
12,1,2,19,bas,4.7335624751,82.04,74.89,733.5209409,1,TRUE,Positive,[1],40
12,1,2,20,noc,4.6518323831,82.04,74.89,651.7327018,2,TRUE,Positive,[2],40
12,1,2,21,noc,7.6001856942,82.04,74.89,600.1483137,3,FALSE,Negative,[3],40
12,1,2,22,con,9.2506761532,82.04,74.89,NA,1,FALSE,Negative,[],40
12,1,2,23,bas,4.6685641389,82.04,74.89,668.5275128,1,TRUE,Positive,[1],40
12,1,2,24,bas,4.6497507775,82.04,74.89,649.7118864,3,TRUE,Positive,[3],40
12,1,2,25,noc,7.7524875998,82.04,74.89,752.3860298,2,FALSE,Negative,[2],40
12,1,2,26,noc,7.6683224859,82.04,74.89,668.2220493,1,FALSE,Negative,[1],40
12,1,2,27,con,5.9512289707,82.04,74.89,701.130799,3,TRUE,Positive,[3],40
12,1,2,28,noc,4.7164780581,82.04,74.89,716.4414329,2,TRUE,Positive,[2],40
12,1,2,29,bas,4.6837636689,82.04,74.89,683.7225128,2,TRUE,Positive,[2],40
12,1,2,30,noc,7.8470150502,82.04,74.89,846.9939064,1,FALSE,Negative,[1],40
12,2,2,1,bas,4.7506989967,73.92,74.74,750.6619943,2,TRUE,Positive,[2],0
12,2,2,2,con,6.233190746,73.92,74.74,733.154498,1,TRUE,Positive,[1],0
12,2,2,3,con,5.1167262048,73.92,74.74,616.6876918,3,TRUE,Positive,[3],0
12,2,2,4,con,5.7671947647,73.92,74.74,767.1098085,2,TRUE,Positive,[2],0
12,2,2,5,noc,4.7497546664,73.92,74.74,749.7180412,2,TRUE,Positive,[2],0
12,2,2,6,noc,7.7668088768,73.92,74.74,766.7730069,1,FALSE,Negative,[1],0
12,2,2,7,con,6.0830225525,73.92,74.74,582.9915907,3,TRUE,Positive,[3],0
12,2,2,8,con,6.1838337099,73.92,74.74,683.7506425,2,TRUE,Positive,[2],0
12,2,2,9,bas,4.6829110906,73.92,74.74,682.8725776,3,TRUE,Positive,[3],0
12,2,2,10,con,6.1831974862,73.92,74.74,683.1597276,2,TRUE,Positive,[2],0
12,2,2,11,noc,4.7179747904,73.92,74.74,717.8735984,3,TRUE,Positive,[3],0
12,2,2,12,noc,7.8350581871,73.92,74.74,834.9649245,1,FALSE,Negative,[1],0
12,2,2,13,bas,4.8183815582,73.92,74.74,818.2739476,3,TRUE,Positive,[3],0
12,2,2,14,noc,7.7851038175,73.92,74.74,785.0011159,1,FALSE,Negative,[1],0
12,2,2,15,noc,4.7004391653,73.92,74.74,700.4040498,2,TRUE,Positive,[2],0
12,2,2,16,bas,4.7174975276,73.92,74.74,717.4612796,2,TRUE,Positive,[2],0
12,2,2,17,bas,4.6680132467,73.92,74.74,667.9754891,1,TRUE,Positive,[1],0
12,2,2,18,noc,4.8333518971,73.92,74.74,833.3152719,3,TRUE,Positive,[3],0
12,2,2,19,con,6.0836878503,73.92,74.74,583.6451836,1,TRUE,Positive,[1],0
12,2,2,20,noc,7.6499894094,73.92,74.74,649.9520289,2,FALSE,Negative,[2],0
12,2,2,21,con,6.1847618045,73.92,74.74,684.6489077,3,TRUE,Positive,[3],0
12,2,2,22,bas,4.6498202523,73.92,74.74,649.7877808,1,TRUE,Positive,[1],0
12,2,2,23,noc,7.666597317,73.92,74.74,666.5689982,3,FALSE,Negative,[3],0
12,2,2,24,con,6.2328505451,73.92,74.74,732.8161849,2,TRUE,Positive,[2],0
12,2,2,25,con,6.1144301342,73.92,74.74,614.4078569,1,TRUE,Positive,[1],0
12,2,2,26,noc,7.7013272354,73.92,74.74,701.2351053,3,FALSE,Negative,[2],0
12,2,2,27,con,6.4002821287,73.92,74.74,650.2451254,3,TRUE,Positive,[3],0
12,2,2,28,con,7.3344523581,73.92,74.74,584.3685344,1,TRUE,Positive,[1],0
12,2,2,29,noc,4.6833362477,73.92,74.74,683.2973566,1,TRUE,Positive,[1],0
12,2,2,30,noc,4.6503605712,73.92,74.74,650.3228135,2,TRUE,Positive,[2],0
12,3,2,1,noc,4.6517950017,73.96,74.86,651.7602643,3,TRUE,Positive,[3],0
12,3,2,2,con,6.2169124661,73.96,74.86,716.8743303,3,TRUE,Positive,[3],0
12,3,2,3,con,5.0182926757,73.96,74.86,518.1809124,1,TRUE,Positive,[1],0
12,3,2,4,noc,4.7665815726,73.96,74.86,766.5423034,2,TRUE,Positive,[2],0
12,3,2,5,bas,4.6502540931,73.96,74.86,650.2170907,3,TRUE,Positive,[3],0
12,3,2,6,bas,4.6668616245,73.96,74.86,666.8212237,1,TRUE,Positive,[1],0
12,3,2,7,con,5.6513335975,73.96,74.86,651.2973504,1,TRUE,Positive,[1],0
12,3,2,8,con,6.1667436296,73.96,74.86,666.7070044,3,TRUE,Positive,[3],0
12,3,2,9,con,6.0835277569,73.96,74.86,583.491886,2,TRUE,Positive,[2],0
12,3,2,10,noc,7.8640043167,73.96,74.86,863.983172,2,FALSE,Negative,[2],0
12,3,2,11,noc,7.6836923053,73.96,74.86,683.6541705,1,FALSE,Negative,[1],0
